File: baseline_out/VIEW_YS.csv
file_name,alloy,card,Al,Si,Fe,Cu,Mn,Mg,Cr,Ni,Zn,Ti,Zr,Sc,Other,YS (MPa),UTS (MPa),Uniform EL (percentage),Fracture EL (percentage),YPE (percentage),Casting,Ingot thickness (mm),Homogenization (Celsius/Seconds),homog_steps,homog_time_total_s,homog_temp_max_C,homog_T_time_weighted_C,homog_time_at_ge_520C_s,adequate_homog,Hot rolling reduction (percentage),Cold rolling reduction (percentage),Recrystallization annealing (Celsius/Seconds),recryst_type,recryst_steps,recryst_time_total_s,recryst_temp_max_C,recryst_T_time_weighted_C,adequate_recryst,adequate_recryst_batch,adequate_recryst_flash,Mean grain size (µm),Secondary phase particle size and density,Crystallographic texture,flag_missing_YS,flag_missing_UTS,flag_missing_FractureEL,flag_missing_UniformEL,flag_missing_YPE,Homogenization_RAW,Recrystallization annealing_RAW,comp_sum_before,comp_fix_applied,comp_sum_after,Al_RAW,Si_RAW,Fe_RAW,Cu_RAW,Mn_RAW,Mg_RAW,Cr_RAW,Ni_RAW,Zn_RAW,Ti_RAW,Zr_RAW,Sc_RAW,Other_RAW
AA5xxx Card - 001A.docx,AA5xxx,001A,96.405,0.06,0.19,1e-08,0.26,3.08,1e-08,1e-08,1e-08,0.005,1e-08,1e-08,1e-08,110.0,225.0,,20.0,1.2,DC,635.0,540/18000,1.0,18000.0,540.0,540.0,18000.0,1.0,99.6,55.0,350/7200,batch,1,7200,350.0,350.0,1,1,0,14.4,,3.69,0,0,0,1,0,540°C > 5 hours,"Batch annealing, 350°C 2 hours",3.595,1,100.0,1e-08,0.06,0.19,1e-08,0.26,3.08,1e-08,1e-08,1e-08,0.005,1e-08,1e-08,1e-08
AA5xxx Card - 001D.docx,AA5xxx,001D,96.405,0.06,0.19,1e-08,0.26,3.08,1e-08,1e-08,1e-08,0.005,1e-08,1e-08,1e-08,100.0,224.0,,19.5,1.2,DC,635.0,540/18000,1.0,18000.0,540.0,540.0,18000.0,1.0,99.6,55.0,350/7200,batch,1,7200,350.0,350.0,1,1,0,12.9,,4.39,0,0,0,1,0,540°C > 5 hours,"Batch annealing, 350°C 2 hours",3.595,1,100.0,1e-08,0.06,0.19,1e-08,0.26,3.08,1e-08,1e-08,1e-08,0.005,1e-08,1e-08,1e-08
AA5xxx Card - 001G.docx,AA5xxx,001G,96.405,0.06,0.19,1e-08,0.26,3.08,1e-08,1e-08,1e-08,0.005,1e-08,1e-08,1e-08,95.0,220.0,,20.0,0.9,DC,635.0,540/18000,1.0,18000.0,540.0,540.0,18000.0,1.0,99.6,55.0,350/7200,batch,1,7200,350.0,350.0,1,1,0,16.3,,3.39,0,0,0,1,0,540°C > 5 hours,"Batch annealing, 350°C 2 hours",3.595,1,100.0,1e-08,0.06,0.19,1e-08,0.26,3.08,1e-08,1e-08,1e-08,0.005,1e-08,1e-08,1e-08
AA5xxx Card - 002C.docx,AA5xxx,002C,96.405,0.06,0.19,1e-08,0.26,3.08,1e-08,1e-08,1e-08,0.005,1e-08,1e-08,1e-08,117.7,227.7,17.2,18.8,2.0,DC,635.0,540/18000,1.0,18000.0,540.0,540.0,18000.0,1.0,99.6,86.0,300/3600,flash,1,3600,300.0,300.0,1,0,1,7.3,,,0,0,0,0,0,540°C > 5 hours,"Flash annealing, 300°C 1 hour",3.595,1,100.0,1e-08,0.06,0.19,1e-08,0.26,3.08,1e-08,1e-08,1e-08,0.005,1e-08,1e-08,1e-08
AA5xxx Card - 002F.docx,AA5xxx,002F,96.405,0.06,0.19,1e-08,0.26,3.08,1e-08,1e-08,1e-08,0.005,1e-08,1e-08,1e-08,119.7,224.8,17.3,18.3,2.0,DC,635.0,540/18000,1.0,18000.0,540.0,540.0,18000.0,1.0,99.6,96.0,300/3600,flash,1,3600,300.0,300.0,1,0,1,7.2,,,0,0,0,0,0,540°C > 5 hours,"Flash annealing, 300°C 1 hour",3.595,1,100.0,1e-08,0.06,0.19,1e-08,0.26,3.08,1e-08,1e-08,1e-08,0.005,1e-08,1e-08,1e-08
AA5xxx Card - 003B.docx,AA5xxx,003B,96.405,0.06,0.19,1e-08,0.26,3.08,1e-08,1e-08,1e-08,0.005,1e-08,1e-08,1e-08,88.57,220.73,19.16,23.13,0.8,DC,635.0,540/18000,1.0,18000.0,540.0,540.0,18000.0,1.0,99.2,0.0,340/0,direct,1,0,340.0,340.0,0,0,0,26.6,,17.0,0,0,0,0,0,540°C > 5 hours,"direct hot rolled to gauge, exit temperature ~ 340°C.",3.595,1,100.0,1e-08,0.06,0.19,1e-08,0.26,3.08,1e-08,1e-08,1e-08,0.005,1e-08,1e-08,1e-08
AA5xxx Card - 004A.docx,AA5xxx,004A,94.445,0.1,0.2,1e-08,0.7,4.4,0.15,1e-08,1e-08,0.005,1e-08,1e-08,1e-08,165.0,311.1,,20.5,,DC,635.0,525/18000,1.0,18000.0,525.0,525.0,18000.0,1.0,99.4,75.0,400/3600,other,1,3600,400.0,400.0,0,0,0,4.9,,,0,0,0,1,1,525°C > 5 hours,400°C 1 hour,5.555,1,100.0,1e-08,0.1,0.2,1e-08,0.7,4.4,0.15,1e-08,1e-08,0.005,1e-08,1e-08,1e-08
AA5xxx Card - 004D.docx,AA5xxx,004D,94.445,0.1,0.2,1e-08,0.7,4.4,0.15,1e-08,1e-08,0.005,1e-08,1e-08,1e-08,131.8,286.3,,23.5,,DC,635.0,525/18000,1.0,18000.0,525.0,525.0,18000.0,1.0,99.4,75.0,550/3600,other,1,3600,550.0,550.0,0,0,0,11.1,,,0,0,0,1,1,525°C > 5 hours,550°C 1 hour,5.555,1,100.0,1e-08,0.1,0.2,1e-08,0.7,4.4,0.15,1e-08,1e-08,0.005,1e-08,1e-08,1e-08
AA5xxx Card - 005C.docx,AA5xxx,005C,95.595,0.1,0.2,1e-08,0.1,4.0,1e-08,1e-08,1e-08,0.005,1e-08,1e-08,1e-08,110.0,230.0,,22.5,2.5,DC,635.0,525/18000,1.0,18000.0,525.0,525.0,18000.0,1.0,99.0,75.0,350/7200,batch,1,7200,350.0,350.0,1,1,0,10.5,,,0,0,0,1,0,525°C > 5 hours,"batch annealing, 350°C 2 hours",4.405,1,100.0,1e-08,0.1,0.2,1e-08,0.1,4.0,1e-08,1e-08,1e-08,0.005,1e-08,1e-08,1e-08
AA5xxx Card - 006A.docx,AA5xxx,006A,96.405,0.06,0.19,1e-08,0.26,3.08,1e-08,1e-08,1e-08,0.005,1e-08,1e-08,1e-08,75.0,215.0,,26.0,0.0,DC,635.0,540/18000,1.0,18000.0,540.0,540.0,18000.0,1.0,99.6,20.0,350/7200,batch,1,7200,350.0,350.0,1,1,0,37.5,,,0,0,0,1,0,540°C > 5 hours,"Batch annealing, 350°C 2 hours",3.595,1,100.0,1e-08,0.06,0.19,1e-08,0.26,3.08,1e-08,1e-08,1e-08,0.005,1e-08,1e-08,1e-08
AA5xxx Card - 006D.docx,AA5xxx,006D,96.405,0.06,0.19,1e-08,0.26,3.08,1e-08,1e-08,1e-08,0.005,1e-08,1e-08,1e-08,84.0,216.0,,23.0,0.6,DC,635.0,540/18000,1.0,18000.0,540.0,540.0,18000.0,1.0,99.6,43.0,350/7200,batch,1,7200,350.0,350.0,1,1,0,26.0,,,0,0,0,1,0,540°C > 5 hours,"Batch annealing, 350°C 2 hours",3.595,1,100.0,1e-08,0.06,0.19,1e-08,0.26,3.08,1e-08,1e-08,1e-08,0.005,1e-08,1e-08,1e-08
AA5xxx Card - 007A.docx,AA5xxx,007A,96.405,0.06,0.19,1e-08,0.26,3.08,1e-08,1e-08,1e-08,0.005,1e-08,1e-08,1e-08,74.0,214.0,,25.0,0.0,DC,635.0,540/18000,1.0,18000.0,540.0,540.0,18000.0,1.0,99.6,18.0,340/7200,batch,1,7200,340.0,340.0,1,1,0,39.1,,,0,0,0,1,0,540°C > 5 hours,"Batch annealing, 340°C 2 hours",3.595,1,100.0,1e-08,0.06,0.19,1e-08,0.26,3.08,1e-08,1e-08,1e-08,0.005,1e-08,1e-08,1e-08
AA5xxx Card - 007D.docx,AA5xxx,007D,96.405,0.06,0.19,1e-08,0.26,3.08,1e-08,1e-08,1e-08,0.005,1e-08,1e-08,1e-08,82.0,212.0,,22.3,0.6,DC,635.0,540/18000,1.0,18000.0,540.0,540.0,18000.0,1.0,99.6,42.0,340/7200,batch,1,7200,340.0,340.0,1,1,0,25.5,,,0,0,0,1,0,540°C > 5 hours,"Batch annealing, 340°C 2 hours",3.595,1,100.0,1e-08,0.06,0.19,1e-08,0.26,3.08,1e-08,1e-08,1e-08,0.005,1e-08,1e-08,1e-08
AA5xxx Card - 008B.docx,AA5xxx,008B,94.775,0.08,0.22,0.04,0.33,4.55,1e-08,1e-08,1e-08,0.005,1e-08,1e-08,1e-08,126.0,271.0,,23.5,0.8,DC,635.0,540/18000,1.0,18000.0,540.0,540.0,18000.0,1.0,99.6,32.0,340/7200,batch,1,7200,340.0,340.0,1,1,0,21.0,,,0,0,0,1,0,540°C > 5 hours,"Batch annealing, 340°C 2 hours",5.225,1,100.0,1e-08,0.08,0.22,0.04,0.33,4.55,1e-08,1e-08,1e-08,0.005,1e-08,1e-08,1e-08
AA5xxx Card - 008E.docx,AA5xxx,008E,94.775,0.08,0.22,0.04,0.33,4.55,1e-08,1e-08,1e-08,0.005,1e-08,1e-08,1e-08,134.5,285.0,,24.0,1.2,DC,635.0,540/18000,1.0,18000.0,540.0,540.0,18000.0,1.0,99.6,50.0,340/7200,batch,1,7200,340.0,340.0,1,1,0,14.6,,,0,0,0,1,0,540°C > 5 hours,"Batch annealing, 340°C 2 hours",5.225,1,100.0,1e-08,0.08,0.22,0.04,0.33,4.55,1e-08,1e-08,1e-08,0.005,1e-08,1e-08,1e-08
AA5xxx Card - 008H.docx,AA5xxx,008H,94.775,0.08,0.22,0.04,0.33,4.55,1e-08,1e-08,1e-08,0.005,1e-08,1e-08,1e-08,142.0,290.0,,23.8,1.5,DC,635.0,540/18000,1.0,18000.0,540.0,540.0,18000.0,1.0,99.6,68.0,340/7200,batch,1,7200,340.0,340.0,1,1,0,12.4,,,0,0,0,1,0,540°C > 5 hours,"Batch annealing, 340°C 2 hours",5.225,1,100.0,1e-08,0.08,0.22,0.04,0.33,4.55,1e-08,1e-08,1e-08,0.005,1e-08,1e-08,1e-08
AA5xxx Card - 008K.docx,AA5xxx,008K,94.775,0.08,0.22,0.04,0.33,4.55,1e-08,1e-08,1e-08,0.005,1e-08,1e-08,1e-08,152.0,196.0,,21.8,1.5,DC,635.0,540/18000,1.0,18000.0,540.0,540.0,18000.0,1.0,99.6,65.0,340/7200,batch,1,7200,340.0,340.0,1,1,0,10.4,,,0,0,0,1,0,540°C > 5 hours,"Batch annealing, 340°C 2 hours",5.225,1,100.0,1e-08,0.08,0.22,0.04,0.33,4.55,1e-08,1e-08,1e-08,0.005,1e-08,1e-08,1e-08
AA5xxx Card - 008N.docx,AA5xxx,008N,94.775,0.08,0.22,0.04,0.33,4.55,1e-08,1e-08,1e-08,0.005,1e-08,1e-08,1e-08,155.0,202.0,,22.0,1.8,DC,635.0,540/18000,1.0,18000.0,540.0,540.0,18000.0,1.0,99.6,70.0,340/7200,batch,1,7200,340.0,340.0,1,1,0,9.3,,,0,0,0,1,0,540°C > 5 hours,"Batch annealing, 340°C 2 hours",5.225,1,100.0,1e-08,0.08,0.22,0.04,0.33,4.55,1e-08,1e-08,1e-08,0.005,1e-08,1e-08,1e-08
AA5xxx Card - 009C.docx,AA5xxx,009C,96.405,0.06,0.19,1e-08,0.26,3.08,1e-08,1e-08,1e-08,0.005,1e-08,1e-08,1e-08,87.5,227.0,,24.0,0.4,DC,635.0,540/18000,1.0,18000.0,540.0,540.0,18000.0,1.0,99.6,45.0,340/7200,batch,1,7200,340.0,340.0,1,1,0,29.5,,,0,0,0,1,0,540°C > 5 hours,"Batch annealing, 340°C 2 hours",3.595,1,100.0,1e-08,0.06,0.19,1e-08,0.26,3.08,1e-08,1e-08,1e-08,0.005,1e-08,1e-08,1e-08
AA5xxx Card - 010A.docx,AA5xxx,010A,95.805,0.06,0.19,1e-08,0.26,3.68,1e-08,1e-08,1e-08,0.005,1e-08,1e-08,1e-08,87.5,229.0,,25.0,0.0,DC,635.0,540/18000,1.0,18000.0,540.0,540.0,18000.0,1.0,99.6,20.0,340/7200,batch,1,7200,340.0,340.0,1,1,0,39.1,,,0,0,0,1,0,540°C > 5 hours,"Batch annealing, 340°C 2 hours",4.195,1,100.0,1e-08,0.06,0.19,1e-08,0.26,3.68,1e-08,1e-08,1e-08,0.005,1e-08,1e-08,1e-08
AA5xxx Card - 010D.docx,AA5xxx,010D,95.805,0.06,0.19,1e-08,0.26,3.68,1e-08,1e-08,1e-08,0.005,1e-08,1e-08,1e-08,99.0,235.0,,24.0,0.8,DC,635.0,540/18000,1.0,18000.0,540.0,540.0,18000.0,1.0,99.6,54.0,340/7200,batch,1,7200,340.0,340.0,1,1,0,24.0,,,0,0,0,1,0,540°C > 5 hours,"Batch annealing, 340°C 2 hours",4.195,1,100.0,1e-08,0.06,0.19,1e-08,0.26,3.68,1e-08,1e-08,1e-08,0.005,1e-08,1e-08,1e-08
AA5xxx Card - 011B.docx,AA5xxx,011B,95.755,0.06,0.19,1e-08,0.31,3.68,1e-08,1e-08,1e-08,0.005,1e-08,1e-08,1e-08,98.0,238.0,,23.0,0.7,DC,635.0,540/18000,1.0,18000.0,540.0,540.0,18000.0,1.0,99.6,38.0,340/7200,batch,1,7200,340.0,340.0,1,1,0,32.7,,,0,0,0,1,0,540°C > 5 hours,"Batch annealing, 340°C 2 hours",4.245,1,100.0,1e-08,0.06,0.19,1e-08,0.31,3.68,1e-08,1e-08,1e-08,0.005,1e-08,1e-08,1e-08
AA5xxx Card - 011E.docx,AA5xxx,011E,95.755,0.06,0.19,1e-08,0.31,3.68,1e-08,1e-08,1e-08,0.005,1e-08,1e-08,1e-08,107.0,250.0,,23.0,0.7,DC,635.0,540/18000,1.0,18000.0,540.0,540.0,18000.0,1.0,99.6,50.0,340/7200,batch,1,7200,340.0,340.0,1,1,0,23.6,,,0,0,0,1,0,540°C > 5 hours,"Batch annealing, 340°C 2 hours",4.245,1,100.0,1e-08,0.06,0.19,1e-08,0.31,3.68,1e-08,1e-08,1e-08,0.005,1e-08,1e-08,1e-08
AA5xxx Card - 012C.docx,AA5xxx,012C,96.405,0.06,0.19,1e-08,0.26,3.08,1e-08,1e-08,1e-08,0.005,1e-08,1e-08,1e-08,92.0,214.0,,21.8,0.8,DC,635.0,540/18000,1.0,18000.0,540.0,540.0,18000.0,1.0,99.6,52.0,340/7200,batch,1,7200,340.0,340.0,1,1,0,18.7,,,0,0,0,1,0,540°C > 5 hours,"Batch annealing, 340°C 2 hours",3.595,1,100.0,1e-08,0.06,0.19,1e-08,0.26,3.08,1e-08,1e-08,1e-08,0.005,1e-08,1e-08,1e-08
AA5xxx Card - 012F.docx,AA5xxx,012F,96.405,0.06,0.19,1e-08,0.26,3.08,1e-08,1e-08,1e-08,0.005,1e-08,1e-08,1e-08,75.0,215.0,,26.0,0.0,DC,635.0,540/18000,1.0,18000.0,540.0,540.0,18000.0,1.0,99.6,26.0,340/7200,batch,1,7200,340.0,340.0,1,1,0,37.3,,,0,0,0,1,0,540°C > 5 hours,"Batch annealing, 340°C 2 hours",3.595,1,100.0,1e-08,0.06,0.19,1e-08,0.26,3.08,1e-08,1e-08,1e-08,0.005,1e-08,1e-08,1e-08
AA5xxx Card - 013B.docx,AA5xxx,013B,94.775,0.08,0.22,0.04,0.33,4.55,1e-08,1e-08,1e-08,0.005,1e-08,1e-08,1e-08,151.0,297.0,,22.5,1.2,DC,635.0,540/18000,1.0,18000.0,540.0,540.0,18000.0,1.0,99.6,70.0,340/7200,batch,1,7200,340.0,340.0,1,1,0,10.0,,,0,0,0,1,0,540°C > 5 hours,"Batch annealing, 340°C 2 hours",5.225,1,100.0,1e-08,0.08,0.22,0.04,0.33,4.55,1e-08,1e-08,1e-08,0.005,1e-08,1e-08,1e-08
AA5xxx Card - 013E.docx,AA5xxx,013E,94.775,0.08,0.22,0.04,0.33,4.55,1e-08,1e-08,1e-08,0.005,1e-08,1e-08,1e-08,147.5,295.0,,23.5,1.5,DC,635.0,540/18000,1.0,18000.0,540.0,540.0,18000.0,1.0,99.6,72.0,340/7200,batch,1,7200,340.0,340.0,1,1,0,11.5,,,0,0,0,1,0,540°C > 5 hours,"Batch annealing, 340°C 2 hours",5.225,1,100.0,1e-08,0.08,0.22,0.04,0.33,4.55,1e-08,1e-08,1e-08,0.005,1e-08,1e-08,1e-08
AA5xxx Card - 013H.docx,AA5xxx,013H,94.775,0.08,0.22,0.04,0.33,4.55,1e-08,1e-08,1e-08,0.005,1e-08,1e-08,1e-08,136.0,286.0,,22.9,0.8,DC,635.0,540/18000,1.0,18000.0,540.0,540.0,18000.0,1.0,99.6,60.0,340/7200,batch,1,7200,340.0,340.0,1,1,0,13.0,,,0,0,0,1,0,540°C > 5 hours,"Batch annealing, 340°C 2 hours",5.225,1,100.0,1e-08,0.08,0.22,0.04,0.33,4.55,1e-08,1e-08,1e-08,0.005,1e-08,1e-08,1e-08
AA5xxx Card - 013K.docx,AA5xxx,013K,94.775,0.08,0.22,0.04,0.33,4.55,1e-08,1e-08,1e-08,0.005,1e-08,1e-08,1e-08,119.5,269.0,,24.0,0.8,DC,635.0,540/18000,1.0,18000.0,540.0,540.0,18000.0,1.0,99.6,40.0,340/7200,batch,1,7200,340.0,340.0,1,1,0,17.0,,,0,0,0,1,0,540°C > 5 hours,"Batch annealing, 340°C 2 hours",5.225,1,100.0,1e-08,0.08,0.22,0.04,0.33,4.55,1e-08,1e-08,1e-08,0.005,1e-08,1e-08,1e-08
AA5xxx Card - 013N.docx,AA5xxx,013N,94.775,0.08,0.22,0.04,0.33,4.55,1e-08,1e-08,1e-08,0.005,1e-08,1e-08,1e-08,124.8,275.0,,23.8,,DC,635.0,540/18000,1.0,18000.0,540.0,540.0,18000.0,1.0,99.6,35.0,340/7200,batch,1,7200,340.0,340.0,1,1,0,22.0,,2.8,0,0,0,1,1,540°C > 5 hours,"Batch annealing, 340°C 2 hours",5.225,1,100.0,1e-08,0.08,0.22,0.04,0.33,4.55,1e-08,1e-08,1e-08,0.005,1e-08,1e-08,1e-08
AA5xxx Card - 014C.docx,AA5xxx,014C,94.885,0.06,0.23,0.06,0.3,4.46,1e-08,1e-08,1e-08,0.005,1e-08,1e-08,1e-08,135.0,282.0,,24.0,1.0,DC,635.0,540/18000,1.0,18000.0,540.0,540.0,18000.0,1.0,99.3,50.0,400/600,flash,1,600,400.0,400,1,0,1,13.8,,2.6,0,0,0,1,0,540°C > 5 hours,"flash annealing, 400°C 10 minutes",5.115,1,100.0,1e-08,0.06,0.23,0.06,0.3,4.46,1e-08,1e-08,1e-08,0.005,1e-08,1e-08,1e-08
AA5xxx Card - 015B.docx,AA5xxx,015B,93.095,0.1,0.2,1e-08,0.6,6.0,1e-08,1e-08,1e-08,0.005,1e-08,1e-08,1e-08,189.0,351.0,,24.5,2.0,DC,406.4,525/18000,1.0,18000.0,525.0,525.0,18000.0,1.0,97.5,90.0,450/3600,flash,1,3600,450.0,450.0,1,0,1,6.0,,,0,0,0,1,0,525°C > 5 hours,"flash annealing, 450°C 1 hour",6.905,1,100.0,1e-08,0.1,0.2,1e-08,0.6,6.0,1e-08,1e-08,1e-08,0.005,1e-08,1e-08,1e-08
AA5xxx Card - 016A.docx,AA5xxx,016A,97.445,0.1,0.25,1e-08,1e-08,2.2,1e-08,1e-08,1e-08,0.005,1e-08,1e-08,1e-08,90.0,190.0,,25.0,,DC,635.0,525/18000,1.0,18000.0,525.0,525.0,18000.0,1.0,99.0,75.0,350/7200,batch,1,7200,350.0,350.0,1,1,0,40.0,,,0,0,0,1,1,525°C > 5 hours,"batch annealing, 350°C 2 hours",2.555,1,100.0,1e-08,0.1,0.25,1e-08,1e-08,2.2,1e-08,1e-08,1e-08,0.005,1e-08,1e-08,1e-08
AA5xxx Card - 017C.docx,AA5xxx,017C,94.765,0.08,0.2,1e-08,0.45,4.5,1e-08,1e-08,1e-08,0.005,1e-08,1e-08,1e-08,174.5,327.2,,23.0,,book mould,76.2,525/28800,1.0,28800.0,525.0,525.0,28800.0,1.0,92.0,75.0,500/3600,flash,1,3600,500.0,500.0,1,0,1,4.8,,,0,0,0,1,1,525°C 8 hours,"flash annealing, 500°C 1 hour",5.235,1,100.0,1e-08,0.08,0.2,1e-08,0.45,4.5,1e-08,1e-08,1e-08,0.005,1e-08,1e-08,1e-08
AA5xxx Card - 018B.docx,AA5xxx,018B,95.465,0.08,0.15,1e-08,0.8,3.5,1e-08,1e-08,1e-08,0.005,1e-08,1e-08,1e-08,141.8,269.7,,23.3,,book mould,38.0,525/28800,1.0,28800.0,525.0,525.0,28800.0,1.0,85.0,50.0,400/3600,flash,1,3600,400.0,400.0,1,0,1,5.5,,,0,0,0,1,1,525°C 8 hours,"flash annealing, 400°C 1 hour",4.535,1,100.0,1e-08,0.08,0.15,1e-08,0.8,3.5,1e-08,1e-08,1e-08,0.005,1e-08,1e-08,1e-08
AA5xxx Card - 018E.docx,AA5xxx,018E,95.465,0.08,0.15,1e-08,0.8,3.5,1e-08,1e-08,1e-08,0.005,1e-08,1e-08,1e-08,109.1,246.0,,22.3,,book mould,38.0,525/28800,1.0,28800.0,525.0,525.0,28800.0,1.0,85.0,50.0,550/3600,flash,1,3600,550.0,550.0,1,0,1,11.1,,,0,0,0,1,1,525°C 8 hours,"flash annealing, 550°C 1 hour",4.535,1,100.0,1e-08,0.08,0.15,1e-08,0.8,3.5,1e-08,1e-08,1e-08,0.005,1e-08,1e-08,1e-08
AA5xxx Card - 019C.docx,AA5xxx,019C,95.365,0.08,0.25,1e-08,0.8,3.5,1e-08,1e-08,1e-08,0.005,1e-08,1e-08,1e-08,130.7,260.1,,22.5,,book mould,38.0,525/28800,1.0,28800.0,525.0,525.0,28800.0,1.0,85.0,50.0,450/3600,flash,1,3600,450.0,450.0,1,0,1,6.6,,,0,0,0,1,1,525°C 8 hours,"flash annealing, 450°C 1 hour",4.635,1,100.0,1e-08,0.08,0.25,1e-08,0.8,3.5,1e-08,1e-08,1e-08,0.005,1e-08,1e-08,1e-08
AA5xxx Card - 020A.docx,AA5xxx,020A,94.875,0.03,0.04,1e-08,0.52,4.53,1e-08,1e-08,1e-08,0.005,1e-08,1e-08,1e-08,156.7,311.3,21.0,31.7,,DC,95.25,540/19800,1.0,19800.0,540.0,540.0,19800.0,1.0,89.0,81.0,350/7200,batch,1,7200,350.0,350.0,1,1,0,13.6,,,0,0,0,0,1,"540°C, 5 - 6 hours","batch annealing, 350°C 2 hours",5.125,1,100.0,1e-08,0.03,0.04,1e-08,0.52,4.53,1e-08,1e-08,1e-08,0.005,1e-08,1e-08,1e-08
AA5xxx Card - 020D.docx,AA5xxx,020D,94.765,0.06,0.14,1e-08,0.51,4.52,1e-08,1e-08,1e-08,0.005,1e-08,1e-08,1e-08,162.0,313.4,20.0,26.0,,DC,95.25,540/19800,1.0,19800.0,540.0,540.0,19800.0,1.0,89.0,81.0,350/7200,batch,1,7200,350.0,350.0,1,1,0,11.4,Yes,,0,0,0,0,1,"540°C, 5 - 6 hours","batch annealing, 350°C 2 hours",5.235,1,100.0,1e-08,0.06,0.14,1e-08,0.51,4.52,1e-08,1e-08,1e-08,0.005,1e-08,1e-08,1e-08
AA5xxx Card - 020G.docx,AA5xxx,020G,94.655,0.06,0.26,1e-08,0.51,4.51,1e-08,1e-08,1e-08,0.005,1e-08,1e-08,1e-08,164.7,316.0,21.3,27.3,,DC,95.25,540/19800,1.0,19800.0,540.0,540.0,19800.0,1.0,89.0,81.0,350/7200,batch,1,7200,350.0,350.0,1,1,0,10.5,Yes,,0,0,0,0,1,"540°C, 5 - 6 hours","batch annealing, 350°C 2 hours",5.345,1,100.0,1e-08,0.06,0.26,1e-08,0.51,4.51,1e-08,1e-08,1e-08,0.005,1e-08,1e-08,1e-08
AA5xxx Card - 021A.docx,AA5xxx,021A,98.615,0.08,0.45,1e-08,0.05,0.8,1e-08,1e-08,1e-08,0.005,1e-08,1e-08,1e-08,54.2,129.9,24.9,25.1,,DC,635.0,540/18000,1.0,18000.0,540.0,540.0,18000.0,1.0,99.0,75.0,300/7200,batch,1,7200,300.0,300.0,1,1,0,20.7,,,0,0,0,0,1,540°C > 5 hours,"batch annealing, 300°C 2 hours",1.385,1,100.0,1e-08,0.08,0.45,1e-08,0.05,0.8,1e-08,1e-08,1e-08,0.005,1e-08,1e-08,1e-08
AA5xxx Card - 021D.docx,AA5xxx,021D,98.615,0.08,0.45,1e-08,0.05,0.8,1e-08,1e-08,1e-08,0.005,1e-08,1e-08,1e-08,50.0,110.6,37.9,38.0,,DC,635.0,540/18000,1.0,18000.0,540.0,540.0,18000.0,1.0,99.0,63.0,300/7200,batch,1,7200,300.0,300.0,1,1,0,36.1,,,0,0,0,0,1,540°C > 5 hours,"batch annealing, 300°C 2 hours",1.385,1,100.0,1e-08,0.08,0.45,1e-08,0.05,0.8,1e-08,1e-08,1e-08,0.005,1e-08,1e-08,1e-08
AA5xxx Card - 022C.docx,AA5xxx,022C,98.715,0.08,0.1,1e-08,0.1,1.0,1e-08,1e-08,1e-08,0.005,1e-08,1e-08,1e-08,50.0,106.2,19.3,19.3,0.0,DC,635.0,540/18000,1.0,18000.0,540.0,540.0,18000.0,1.0,99.6,50.0,375/7200,batch,1,7200,375.0,375.0,1,1,0,80.0,,,0,0,0,0,0,540°C > 5 hours,"batch annealing, 375°C 2 hours",1.285,1,100.0,1e-08,0.08,0.1,1e-08,0.1,1.0,1e-08,1e-08,1e-08,0.005,1e-08,1e-08,1e-08
AA5xxx Card - 022F.docx,AA5xxx,022F,98.715,0.08,0.1,1e-08,0.1,1.0,1e-08,1e-08,1e-08,0.005,1e-08,1e-08,1e-08,50.0,107.4,20.0,20.2,0.0,DC,635.0,540/18000,1.0,18000.0,540.0,540.0,18000.0,1.0,99.6,60.0,375/7200,batch,1,7200,375.0,375.0,1,1,0,75.0,,,0,0,0,0,0,540°C > 5 hours,"batch annealing, 375°C 2 hours",1.285,1,100.0,1e-08,0.08,0.1,1e-08,0.1,1.0,1e-08,1e-08,1e-08,0.005,1e-08,1e-08,1e-08
AA5xxx Card - 022I.docx,AA5xxx,022I,98.715,0.08,0.1,1e-08,0.1,1.0,1e-08,1e-08,1e-08,0.005,1e-08,1e-08,1e-08,50.0,110.8,21.1,21.3,,DC,635.0,540/18000,1.0,18000.0,540.0,540.0,18000.0,1.0,99.6,70.0,375/7200,batch,1,7200,375.0,375.0,1,1,0,75.0,,,0,0,0,0,1,540°C > 5 hours,"batch annealing, 375°C 2 hours",1.285,1,100.0,1e-08,0.08,0.1,1e-08,0.1,1.0,1e-08,1e-08,1e-08,0.005,1e-08,1e-08,1e-08
AA5xxx Card - 022L.docx,AA5xxx,022L,98.715,0.08,0.1,1e-08,0.1,1.0,1e-08,1e-08,1e-08,0.005,1e-08,1e-08,1e-08,50.0,112.1,20.9,20.9,0.0,DC,635.0,540/18000,1.0,18000.0,540.0,540.0,18000.0,1.0,99.6,79.0,375/7200,batch,1,7200,375.0,375.0,1,1,0,75.0,,,0,0,0,0,0,540°C > 5 hours,"batch annealing, 375°C 2 hours",1.285,1,100.0,1e-08,0.08,0.1,1e-08,0.1,1.0,1e-08,1e-08,1e-08,0.005,1e-08,1e-08,1e-08
AA5xxx Card - 023C.docx,AA5xxx,023C,98.615,0.08,0.45,1e-08,0.05,0.8,1e-08,1e-08,1e-08,0.005,1e-08,1e-08,1e-08,65.4,131.8,,23.3,0.0,DC,635.0,540/18000,1.0,18000.0,540.0,540.0,18000.0,1.0,98.7,80.0,320/7200,batch,1,7200,320.0,320.0,1,1,0,35.0,,,0,0,0,1,0,540°C > 5 hours,"batch annealing, 320°C 2 hours",1.385,1,100.0,1e-08,0.08,0.45,1e-08,0.05,0.8,1e-08,1e-08,1e-08,0.005,1e-08,1e-08,1e-08
AA5xxx Card - 025A.docx,AA5xxx,025A,94.315,0.08,0.3,1e-08,0.7,4.5,0.1,1e-08,1e-08,0.005,1e-08,1e-08,1e-08,174.0,323.0,25.0,26.0,1.6,DC,635.0,540/18000,1.0,18000.0,540.0,540.0,18000.0,1.0,99.0,70.0,400/7200,batch,1,7200,400.0,400.0,1,1,0,28.0,,,0,0,0,0,0,540°C > 5 hours,"batch annealing, 400°C 2 hours",5.685,1,100.0,1e-08,0.08,0.3,1e-08,0.7,4.5,0.1,1e-08,1e-08,0.005,1e-08,1e-08,1e-08
AA5xxx Card - 026C.docx,AA5xxx,026C,95.075,0.14,0.2,1e-08,0.42,4.16,1e-08,1e-08,1e-08,0.005,1e-08,1e-08,1e-08,125.0,253.0,,21.0,1.2,mould casting,40.0,,0.0,0.0,,,0.0,0.0,93.8,63.0,370/3600,batch,1,3600,370.0,370.0,1,1,0,15.8,,,0,0,0,1,0,25°C 12 hours,"batch annealing, 370°C 1 hour",4.925,1,100.0,1e-08,0.14,0.2,1e-08,0.42,4.16,1e-08,1e-08,1e-08,0.005,1e-08,1e-08,1e-08
AA5xxx Card - 026F.docx,AA5xxx,026F,95.645,0.13,0.19,1e-08,0.43,3.6,1e-08,1e-08,1e-08,0.005,1e-08,1e-08,1e-08,115.0,245.0,,18.0,0.0,mould casting,40.0,530/19800,1.0,19800.0,530.0,530.0,19800.0,1.0,93.8,20.0,370/3600,batch,1,3600,370.0,370.0,1,1,0,32.8,,,0,0,0,1,0,530°C 5.5 hours,"batch annealing, 370°C 1 hour",4.355,1,100.0,1e-08,0.13,0.19,1e-08,0.43,3.6,1e-08,1e-08,1e-08,0.005,1e-08,1e-08,1e-08
AA5xxx Card - 026I.docx,AA5xxx,026I,94.985,0.13,0.2,1e-08,0.2,4.48,1e-08,1e-08,1e-08,0.005,1e-08,1e-08,1e-08,126.0,256.0,,21.0,1.4,mould casting,40.0,530/19800,1.0,19800.0,530.0,530.0,19800.0,1.0,93.8,63.0,370/3600,batch,1,3600,370.0,370.0,1,1,0,16.1,,,0,0,0,1,0,530°C 5.5 hours,"batch annealing, 370°C 1 hour",5.015,1,100.0,1e-08,0.13,0.2,1e-08,0.2,4.48,1e-08,1e-08,1e-08,0.005,1e-08,1e-08,1e-08
AA5xxx Card - 026L.docx,AA5xxx,026L,94.495,0.13,0.18,0.15,0.42,4.62,1e-08,1e-08,1e-08,0.005,1e-08,1e-08,1e-08,121.0,292.0,,21.0,0.2,mould casting,40.0,480/86400 + 490/86400,2.0,172800.0,490.0,485.0,0.0,0.0,93.8,20.0,370/3600,batch,1,3600,370.0,370.0,1,1,0,37.2,,,0,0,0,1,0,480°C 24 hours + 490°C 24 hours,"batch annealing, 370°C 1 hour",5.505,1,100.0,1e-08,0.13,0.18,0.15,0.42,4.62,1e-08,1e-08,1e-08,0.005,1e-08,1e-08,1e-08
AA5xxx Card - 026O.docx,AA5xxx,026O,94.515,0.13,0.18,1e-08,0.4,4.53,1e-08,1e-08,0.24,0.005,1e-08,1e-08,1e-08,109.0,265.0,,23.0,0.3,mould casting,40.0,460/86400,1.0,86400.0,460.0,460.0,0.0,0.0,93.8,20.0,370/3600,batch,1,3600,370.0,370.0,1,1,0,38.4,,,0,0,0,1,0,460°C 24 hours,"batch annealing, 370°C 1 hour",5.485,1,100.0,1e-08,0.13,0.18,1e-08,0.4,4.53,1e-08,1e-08,0.24,0.005,1e-08,1e-08,1e-08
AA5xxx Card - 026R.docx,AA5xxx,026R,94.325,0.14,0.32,1e-08,0.34,4.72,1e-08,1e-08,1e-08,0.005,0.15,1e-08,1e-08,118.0,279.0,,18.0,1.1,mould casting,40.0,350/14400 + 480/86400 + 490/86400,3.0,187200.0,490.0,474.615,0.0,0.0,93.8,63.0,370/3600,batch,1,3600,370.0,370.0,1,1,0,17.7,,,0,0,0,1,0,350°C 4 hours + 480°C 24 hours + 490°C 24 hours,"batch annealing, 370°C 1 hour",5.675,1,100.0,1e-08,0.14,0.32,1e-08,0.34,4.72,1e-08,1e-08,1e-08,0.005,0.15,1e-08,1e-08
AA5xxx Card - 027B.docx,AA5xxx,027B,94.695,0.13,0.19,1e-08,0.41,4.57,1e-08,1e-08,1e-08,0.005,1e-08,1e-08,1e-08,108.0,262.0,,23.0,0.0,mould casting,40.0,530/19800,1.0,19800.0,530.0,530.0,19800.0,1.0,93.8,20.0,500/300,flash,1,300,500.0,500.0,1,0,1,34.1,,,0,0,0,1,0,530°C 5.5 hours,"flash annealing, 500°C 5 minutes",5.305,1,100.0,1e-08,0.13,0.19,1e-08,0.41,4.57,1e-08,1e-08,1e-08,0.005,1e-08,1e-08,1e-08
AA5xxx Card - 027E.docx,AA5xxx,027E,95.645,0.13,0.19,1e-08,0.43,3.6,1e-08,1e-08,1e-08,0.005,1e-08,1e-08,1e-08,108.0,244.0,,23.0,0.6,mould casting,40.0,530/19800,1.0,19800.0,530.0,530.0,19800.0,1.0,93.8,63.0,500/300,flash,1,300,500.0,500.0,1,0,1,15.0,,,0,0,0,1,0,530°C 5.5 hours,"flash annealing, 500°C 5 minutes",4.355,1,100.0,1e-08,0.13,0.19,1e-08,0.43,3.6,1e-08,1e-08,1e-08,0.005,1e-08,1e-08,1e-08
AA5xxx Card - 027H.docx,AA5xxx,027H,94.435,0.13,0.2,1e-08,0.34,4.89,1e-08,1e-08,1e-08,0.005,1e-08,1e-08,1e-08,114.0,268.0,,23.0,0.0,mould casting,40.0,530/19800,1.0,19800.0,530.0,530.0,19800.0,1.0,93.8,20.0,500/300,flash,1,300,500.0,500.0,1,0,1,36.8,,,0,0,0,1,0,530°C 5.5 hours,"flash annealing, 500°C 5 minutes",5.565,1,100.0,1e-08,0.13,0.2,1e-08,0.34,4.89,1e-08,1e-08,1e-08,0.005,1e-08,1e-08,1e-08
AA5xxx Card - 027K.docx,AA5xxx,027K,94.495,0.13,0.18,0.15,0.42,4.62,1e-08,1e-08,1e-08,0.005,1e-08,1e-08,1e-08,121.0,280.0,,26.0,0.5,mould casting,40.0,480/86400 + 490/86400,2.0,172800.0,490.0,485.0,0.0,0.0,93.8,63.0,500/300,flash,1,300,500.0,500.0,1,0,1,23.2,,,0,0,0,1,0,480°C 24 hours + 490°C 24 hours,"flash annealing, 500°C 5 minutes",5.505,1,100.0,1e-08,0.13,0.18,0.15,0.42,4.62,1e-08,1e-08,1e-08,0.005,1e-08,1e-08,1e-08
AA5xxx Card - 027N.docx,AA5xxx,027N,94.515,0.13,0.18,1e-08,0.4,4.53,1e-08,1e-08,0.24,0.005,1e-08,1e-08,1e-08,124.0,272.0,,24.0,0.5,mould casting,40.0,460/86400,1.0,86400.0,460.0,460.0,0.0,0.0,93.8,63.0,500/300,flash,1,300,500.0,500.0,1,0,1,14.3,,,0,0,0,1,0,460°C 24 hours,"flash annealing, 500°C 5 minutes",5.485,1,100.0,1e-08,0.13,0.18,1e-08,0.4,4.53,1e-08,1e-08,0.24,0.005,1e-08,1e-08,1e-08
AA5xxx Card - 027Q.docx,AA5xxx,027Q,92.605,0.13,0.19,1e-08,0.42,4.57,1e-08,1e-08,2.08,0.005,1e-08,1e-08,1e-08,183.0,368.0,,20.0,0.0,mould casting,40.0,460/86400,1.0,86400.0,460.0,460.0,0.0,0.0,93.8,20.0,500/300,flash,1,300,500.0,500.0,1,0,1,28.0,,,0,0,0,1,0,460°C 24 hours,"flash annealing, 500°C 5 minutes",7.395,1,100.0,1e-08,0.13,0.19,1e-08,0.42,4.57,1e-08,1e-08,2.08,0.005,1e-08,1e-08,1e-08
AA5xxx Card - 028A.docx,AA5xxx,028A,98.495,0.1,0.2,1e-08,0.05,1.15,1e-08,1e-08,1e-08,0.005,1e-08,1e-08,1e-08,50.0,120.0,,28.0,0.0,DC,550.0,520/18000,1.0,18000.0,520.0,520.0,18000.0,1.0,99.0,75.0,350/7200,batch,1,7200,350.0,350.0,1,1,0,35.0,,,0,0,0,1,0,520°C > 5 hours,"batch annealing, 350°C 2 hours",1.505,1,100.0,1e-08,0.1,0.2,1e-08,0.05,1.15,1e-08,1e-08,1e-08,0.005,1e-08,1e-08,1e-08
AA5xxx Card - 028D.docx,AA5xxx,028D,94.79,0.1,0.2,1e-08,0.65,4.2,1e-08,1e-08,1e-08,0.06,1e-08,1e-08,1e-08,140.0,270.0,,23.0,,DC,550.0,520/18000,1.0,18000.0,520.0,520.0,18000.0,1.0,99.0,75.0,350/7200,batch,1,7200,350.0,350.0,1,1,0,25.0,,,0,0,0,1,1,520°C > 5 hours,"batch annealing, 350°C 2 hours",5.21,1,100.0,1e-08,0.1,0.2,1e-08,0.65,4.2,1e-08,1e-08,1e-08,0.06,1e-08,1e-08,1e-08
AA5xxx Card - 029A.docx,AA5xxx,029A,98.885,0.08,0.1,0.1,0.03,0.8,1e-08,1e-08,1e-08,0.005,1e-08,1e-08,1e-08,70.3,123.4,,21.2,0.0,DC,635.0,540/18000,1.0,18000.0,540.0,540.0,18000.0,1.0,99.4,80.0,275/28800,batch,1,28800,275.0,275.0,0,0,0,20.7,,,0,0,0,1,0,540°C > 5 hours,"batch annealing, 275°C 8 hours",1.115,1,100.0,1e-08,0.08,0.1,0.1,0.03,0.8,1e-08,1e-08,1e-08,0.005,1e-08,1e-08,1e-08
AA5xxx Card - 029D.docx,AA5xxx,029D,98.885,0.08,0.1,0.1,0.03,0.8,1e-08,1e-08,1e-08,0.005,1e-08,1e-08,1e-08,50.0,115.1,,23.7,0.0,DC,635.0,540/18000,1.0,18000.0,540.0,540.0,18000.0,1.0,99.4,80.0,295/7200,batch,1,7200,295.0,295.0,0,0,0,27.8,,,0,0,0,1,0,540°C > 5 hours,"batch annealing, 295°C 2 hours",1.115,1,100.0,1e-08,0.08,0.1,0.1,0.03,0.8,1e-08,1e-08,1e-08,0.005,1e-08,1e-08,1e-08
AA5xxx Card - 031A.docx,AA5xxx,031A,96.885,0.11,0.33,0.02,0.08,2.37,0.2,1e-08,1e-08,0.005,1e-08,1e-08,1e-08,139.67,225.61,,17.6,0.0,DC,635.0,540/18000,1.0,18000.0,540.0,540.0,18000.0,1.0,99.4,70.0,350/7200,batch,1,7200,350.0,350.0,1,1,0,30.0,,,0,0,0,1,0,540°C > 5 hours,"batch annealing, 350°C 2 hours",3.115,1,100.0,1e-08,0.11,0.33,0.02,0.08,2.37,0.2,1e-08,1e-08,0.005,1e-08,1e-08,1e-08
AA5xxx Card - 032B.docx,AA5xxx,032B,93.295,0.1,0.2,1e-08,0.6,5.8,1e-08,1e-08,1e-08,0.005,1e-08,1e-08,1e-08,169.1,318.8,,24.0,,DC,635.0,540/18000,1.0,18000.0,540.0,540.0,18000.0,1.0,99.4,90.0,450/3600,flash,1,3600,450.0,450.0,1,0,1,5.7,,,0,0,0,1,1,540°C > 5 hours,"flash annealing, 450°C 1 hour",6.705,1,100.0,1e-08,0.1,0.2,1e-08,0.6,5.8,1e-08,1e-08,1e-08,0.005,1e-08,1e-08,1e-08
AA5xxx Card - 033A.docx,AA5xxx,033A,94.675,0.11,0.21,0.04,0.35,4.6,0.01,1e-08,1e-08,0.005,1e-08,1e-08,1e-08,155.0,312.5,,22.0,,DC,635.0,540/18000,1.0,18000.0,540.0,540.0,18000.0,1.0,99.5,52.5,350/3600,flash,1,3600,350.0,350.0,1,0,1,25.2,,,0,0,0,1,1,540°C > 5 hours,"flash annealing, 350°C 1 hour",5.325,1,100.0,1e-08,0.11,0.21,0.04,0.35,4.6,0.01,1e-08,1e-08,0.005,1e-08,1e-08,1e-08
AA5xxx Card - 034B.docx,AA5xxx,034B,94.965,0.08,0.22,0.04,0.33,4.35,0.01,1e-08,1e-08,0.005,1e-08,1e-08,1e-08,150.0,300.0,,22.0,,DC,635.0,540/18000,1.0,18000.0,540.0,540.0,18000.0,1.0,99.5,71.2,313/10800,flash,1,10800,313.0,313.0,1,0,1,12.5,,,0,0,0,1,1,540°C > 5 hours,"flash annealing, 313°C 3 hours",5.035,1,100.0,1e-08,0.08,0.22,0.04,0.33,4.35,0.01,1e-08,1e-08,0.005,1e-08,1e-08,1e-08
AA5xxx Card - 034E.docx,AA5xxx,034E,94.965,0.08,0.22,0.04,0.33,4.35,0.01,1e-08,1e-08,0.005,1e-08,1e-08,1e-08,150.0,290.0,,21.5,,DC,635.0,540/18000,1.0,18000.0,540.0,540.0,18000.0,1.0,99.5,71.2,313/10800,flash,1,10800,313.0,313.0,1,0,1,10.0,,,0,0,0,1,1,540°C > 5 hours,"flash annealing, 313°C 3 hours",5.035,1,100.0,1e-08,0.08,0.22,0.04,0.33,4.35,0.01,1e-08,1e-08,0.005,1e-08,1e-08,1e-08
AA5xxx Card - 035B.docx,AA5xxx,035B,95.065,0.03,0.21,0.04,0.34,4.3,0.01,1e-08,1e-08,0.005,1e-08,1e-08,1e-08,159.0,304.0,,21.5,,DC,635.0,540/18000,1.0,18000.0,540.0,540.0,18000.0,1.0,99.6,10.0,350/60,flash,1,60,350.0,350.0,1,0,1,28.0,,,0,0,0,1,1,540°C > 5 hours,"flash annealing, 350°C 1 minute",4.935,1,100.0,1e-08,0.03,0.21,0.04,0.34,4.3,0.01,1e-08,1e-08,0.005,1e-08,1e-08,1e-08
AA5xxx Card - 035E.docx,AA5xxx,035E,95.065,0.03,0.21,0.04,0.34,4.3,0.01,1e-08,1e-08,0.005,1e-08,1e-08,1e-08,149.0,294.0,,17.0,,DC,635.0,540/18000,1.0,18000.0,540.0,540.0,18000.0,1.0,99.6,10.0,350/600,flash,1,600,350.0,350.0,1,0,1,,,,0,0,0,1,1,540°C > 5 hours,"flash annealing, 350°C 10 minutes",4.935,1,100.0,1e-08,0.03,0.21,0.04,0.34,4.3,0.01,1e-08,1e-08,0.005,1e-08,1e-08,1e-08
AA5xxx Card - 035H.docx,AA5xxx,035H,95.065,0.03,0.21,0.04,0.34,4.3,0.01,1e-08,1e-08,0.005,1e-08,1e-08,1e-08,138.0,283.0,,18.0,,DC,635.0,540/18000,1.0,18000.0,540.0,540.0,18000.0,1.0,99.6,15.0,350/180,flash,1,180,350.0,350.0,1,0,1,,,,0,0,0,1,1,540°C > 5 hours,"flash annealing, 350°C 3 minutes",4.935,1,100.0,1e-08,0.03,0.21,0.04,0.34,4.3,0.01,1e-08,1e-08,0.005,1e-08,1e-08,1e-08
AA5xxx Card - 035K.docx,AA5xxx,035K,95.065,0.03,0.21,0.04,0.34,4.3,0.01,1e-08,1e-08,0.005,1e-08,1e-08,1e-08,105.0,250.0,,24.0,,DC,635.0,540/18000,1.0,18000.0,540.0,540.0,18000.0,1.0,99.6,15.0,350/1200,flash,1,1200,350.0,350.0,1,0,1,,,,0,0,0,1,1,540°C > 5 hours,"flash annealing, 350°C 20 minutes",4.935,1,100.0,1e-08,0.03,0.21,0.04,0.34,4.3,0.01,1e-08,1e-08,0.005,1e-08,1e-08,1e-08
AA5xxx Card - 035N.docx,AA5xxx,035N,95.065,0.03,0.21,0.04,0.34,4.3,0.01,1e-08,1e-08,0.005,1e-08,1e-08,1e-08,115.5,261.0,,19.0,,DC,635.0,540/18000,1.0,18000.0,540.0,540.0,18000.0,1.0,99.6,20.0,350/300,flash,1,300,350.0,350.0,1,0,1,,,,0,0,0,1,1,540°C > 5 hours,"flash annealing, 350°C 5 minutes",4.935,1,100.0,1e-08,0.03,0.21,0.04,0.34,4.3,0.01,1e-08,1e-08,0.005,1e-08,1e-08,1e-08
AA5xxx Card - 035Q.docx,AA5xxx,035Q,95.065,0.03,0.21,0.04,0.34,4.3,0.01,1e-08,1e-08,0.005,1e-08,1e-08,1e-08,135.5,281.0,,24.0,,DC,635.0,540/18000,1.0,18000.0,540.0,540.0,18000.0,1.0,99.6,5.0,350/60,flash,1,60,350.0,350.0,1,0,1,,,,0,0,0,1,1,540°C > 5 hours,"flash annealing, 350°C 1 minute",4.935,1,100.0,1e-08,0.03,0.21,0.04,0.34,4.3,0.01,1e-08,1e-08,0.005,1e-08,1e-08,1e-08
AA5xxx Card - 035T.docx,AA5xxx,035T,95.065,0.03,0.21,0.04,0.34,4.3,0.01,1e-08,1e-08,0.005,1e-08,1e-08,1e-08,134.0,279.0,,22.5,,DC,635.0,540/18000,1.0,18000.0,540.0,540.0,18000.0,1.0,99.6,5.0,350/600,flash,1,600,350.0,350.0,1,0,1,,,,0,0,0,1,1,540°C > 5 hours,"flash annealing, 350°C 10 minutes",4.935,1,100.0,1e-08,0.03,0.21,0.04,0.34,4.3,0.01,1e-08,1e-08,0.005,1e-08,1e-08,1e-08
AA5xxx Card - 036B.docx,AA5xxx,036B,95.065,0.03,0.21,0.04,0.34,4.3,0.01,1e-08,1e-08,0.005,1e-08,1e-08,1e-08,131.5,276.0,,22.5,,DC,635.0,540/18000,1.0,18000.0,540.0,540.0,18000.0,1.0,99.6,5.0,400/180,flash,1,180,400.0,400.0,1,0,1,17.5,,,0,0,0,1,1,540°C > 5 hours,"flash annealing, 400°C 3 minutes",4.935,1,100.0,1e-08,0.03,0.21,0.04,0.34,4.3,0.01,1e-08,1e-08,0.005,1e-08,1e-08,1e-08
AA5xxx Card - 036E.docx,AA5xxx,036E,95.065,0.03,0.21,0.04,0.34,4.3,0.01,1e-08,1e-08,0.005,1e-08,1e-08,1e-08,134.0,280.0,,22.5,,DC,635.0,540/18000,1.0,18000.0,540.0,540.0,18000.0,1.0,99.6,10.0,400/60,flash,1,60,400.0,400.0,1,0,1,16.5,,,0,0,0,1,1,540°C > 5 hours,"flash annealing, 400°C 1 minute",4.935,1,100.0,1e-08,0.03,0.21,0.04,0.34,4.3,0.01,1e-08,1e-08,0.005,1e-08,1e-08,1e-08
AA5xxx Card - 036H.docx,AA5xxx,036H,95.065,0.03,0.21,0.04,0.34,4.3,0.01,1e-08,1e-08,0.005,1e-08,1e-08,1e-08,105.0,255.0,,24.0,,DC,635.0,540/18000,1.0,18000.0,540.0,540.0,18000.0,1.0,99.6,10.0,400/600,flash,1,600,400.0,400,1,0,1,45.0,,,0,0,0,1,1,540°C > 5 hours,"flash annealing, 400°C 10 minutes",4.935,1,100.0,1e-08,0.03,0.21,0.04,0.34,4.3,0.01,1e-08,1e-08,0.005,1e-08,1e-08,1e-08
AA5xxx Card - 036K.docx,AA5xxx,036K,95.065,0.03,0.21,0.04,0.34,4.3,0.01,1e-08,1e-08,0.005,1e-08,1e-08,1e-08,108.0,260.0,,22.5,,DC,635.0,540/18000,1.0,18000.0,540.0,540.0,18000.0,1.0,99.6,15.0,400/300,flash,1,300,400.0,400,1,0,1,44.0,,,0,0,0,1,1,540°C > 5 hours,"flash annealing, 400°C 5 minutes",4.935,1,100.0,1e-08,0.03,0.21,0.04,0.34,4.3,0.01,1e-08,1e-08,0.005,1e-08,1e-08,1e-08
AA5xxx Card - 036N.docx,AA5xxx,036N,95.065,0.03,0.21,0.04,0.34,4.3,0.01,1e-08,1e-08,0.005,1e-08,1e-08,1e-08,115.0,260.0,,18.0,,DC,635.0,540/18000,1.0,18000.0,540.0,540.0,18000.0,1.0,99.6,20.0,400/180,flash,1,180,400.0,400.0,1,0,1,23.0,,,0,0,0,1,1,540°C > 5 hours,"flash annealing, 400°C 3 minutes",4.935,1,100.0,1e-08,0.03,0.21,0.04,0.34,4.3,0.01,1e-08,1e-08,0.005,1e-08,1e-08,1e-08
AA5xxx Card - 037A.docx,AA5xxx,037A,96.885,0.11,0.33,0.02,0.08,2.37,0.2,1e-08,1e-08,0.005,1e-08,1e-08,1e-08,139.0,225.0,,17.6,0.0,DC,635.0,540/18000,1.0,18000.0,540.0,540.0,18000.0,1.0,99.5,60.0,350/7200,batch,1,7200,350.0,350.0,1,1,0,30.0,,,0,0,0,1,0,540°C > 5 hours,"batch annealing, 350°C 2 hours",3.115,1,100.0,1e-08,0.11,0.33,0.02,0.08,2.37,0.2,1e-08,1e-08,0.005,1e-08,1e-08,1e-08
AA5xxx Card - 038B.docx,AA5xxx,038B,96.195,0.1,0.2,1e-08,0.4,3.1,1e-08,1e-08,1e-08,0.005,1e-08,1e-08,1e-08,135.0,248.0,,20.0,,DC,635.0,540/18000,1.0,18000.0,540.0,540.0,18000.0,1.0,99.0,65.0,350/7200,batch,1,7200,350.0,350.0,1,1,0,6.0,,,0,0,0,1,1,540°C > 5 hours,"Batch annealing, 350°C 2 hours",3.805,1,100.0,1e-08,0.1,0.2,1e-08,0.4,3.1,1e-08,1e-08,1e-08,0.005,1e-08,1e-08,1e-08
AA5xxx Card - 039B.docx,AA5xxx,039B,96.885,0.11,0.31,0.02,0.08,2.37,0.22,1e-08,1e-08,0.005,1e-08,1e-08,1e-08,135.0,210.0,,17.3,0.0,DC,635.0,470/21600,1.0,21600.0,470.0,470.0,0.0,0.0,99.5,45.0,370/14400,batch,1,14400,370.0,370.0,1,1,0,31.2,,,0,0,0,1,0,470°C 6 hours,"batch annealing, 370°C 4 hours",3.115,1,100.0,1e-08,0.11,0.31,0.02,0.08,2.37,0.22,1e-08,1e-08,0.005,1e-08,1e-08,1e-08
AA5xxx Card - 040B.docx,AA5xxx,040B,95.451,0.27,0.31,1e-08,0.81,3.01,0.14,1e-08,1e-08,0.009,1e-08,1e-08,1e-08,220.0,350.0,,20.0,0.0,permanent steel mould,30.0,425/43200,1.0,43200.0,425.0,425.0,0.0,0.0,88.0,69.0,350/3600,batch,1,3600,350.0,350.0,1,1,0,19.0,,,0,0,0,1,0,425°C 12 hours,"batch annealing, 350°C 1 hour",4.549,1,100.0,1e-08,0.27,0.31,1e-08,0.81,3.01,0.14,1e-08,1e-08,0.009,1e-08,1e-08,1e-08
AA5xxx Card - 040E.docx,AA5xxx,040E,95.451,0.27,0.31,1e-08,0.81,3.01,0.14,1e-08,1e-08,0.009,1e-08,1e-08,1e-08,174.0,335.0,,25.5,0.0,permanent steel mould,30.0,525/7200,1.0,7200.0,525.0,525.0,7200.0,1.0,88.0,69.0,350/3600,batch,1,3600,350.0,350.0,1,1,0,38.0,,,0,0,0,1,0,525°C 2 hours,"batch annealing, 350°C 1 hour",4.549,1,100.0,1e-08,0.27,0.31,1e-08,0.81,3.01,0.14,1e-08,1e-08,0.009,1e-08,1e-08,1e-08
AA5xxx Card - 041B.docx,AA5xxx,041B,96.649,0.07,0.19,1e-08,0.2,2.89,1e-08,1e-08,1e-08,0.001,1e-08,1e-08,1e-08,95.0,215.0,23.9,28.1,,DC,95.25,520/19800,1.0,19800.0,520.0,520.0,19800.0,1.0,99.0,70.0,350/7200,batch,1,7200,350.0,350.0,1,1,0,18.4,,,0,0,0,0,1,520°C 5.5 hours,"batch annealing, 350°C 2 hours",3.351,1,100.0,1e-08,0.07,0.19,1e-08,0.2,2.89,1e-08,1e-08,1e-08,0.001,1e-08,1e-08,1e-08
AA5xxx Card - 042A.docx,AA5xxx,042A,96.079,0.08,0.18,1e-08,0.78,2.88,1e-08,1e-08,1e-08,0.001,1e-08,1e-08,1e-08,108.0,138.0,,20.0,,DC,95.25,520/19800,1.0,19800.0,520.0,520.0,19800.0,1.0,99.0,70.0,365/7200,batch,1,7200,365.0,365.0,1,1,0,18.1,,,0,0,0,1,1,520°C 5.5 hours,"batch annealing, 365°C 2 hours",3.921,1,100.0,1e-08,0.08,0.18,1e-08,0.78,2.88,1e-08,1e-08,1e-08,0.001,1e-08,1e-08,1e-08
AA5xxx Card - 042D.docx,AA5xxx,042D,96.079,0.08,0.18,1e-08,0.78,2.88,1e-08,1e-08,1e-08,0.001,1e-08,1e-08,1e-08,116.0,236.0,,,,DC,95.25,520/19800,1.0,19800.0,520.0,520.0,19800.0,1.0,99.0,70.0,300/7200,batch,1,7200,300.0,300.0,1,1,0,12.9,,,0,0,1,1,1,520°C 5.5 hours,"batch annealing, 300°C 2 hours",3.921,1,100.0,1e-08,0.08,0.18,1e-08,0.78,2.88,1e-08,1e-08,1e-08,0.001,1e-08,1e-08,1e-08
AA5xxx Card - 043A.docx,AA5xxx,043A,96.369,0.08,0.19,1e-08,0.5,2.86,1e-08,1e-08,1e-08,0.001,1e-08,1e-08,1e-08,100.0,228.0,20.0,24.0,,DC,95.25,520/19800,1.0,19800.0,520.0,520.0,19800.0,1.0,99.0,70.0,350/7200,batch,1,7200,350.0,350.0,1,1,0,19.1,,,0,0,0,0,1,520°C 5.5 hours,"batch annealing, 350°C 2 hours",3.631,1,100.0,1e-08,0.08,0.19,1e-08,0.5,2.86,1e-08,1e-08,1e-08,0.001,1e-08,1e-08,1e-08
AA5xxx Card - 043D.docx,AA5xxx,043D,96.369,0.08,0.19,1e-08,0.5,2.86,1e-08,1e-08,1e-08,0.001,1e-08,1e-08,1e-08,108.0,235.0,,24.5,,DC,95.25,520/19800,1.0,19800.0,520.0,520.0,19800.0,1.0,99.0,70.0,320/7200,batch,1,7200,320.0,320.0,1,1,0,16.5,,,0,0,0,1,1,520°C 5.5 hours,batch annealing 320°C 2 hours,3.631,1,100.0,1e-08,0.08,0.19,1e-08,0.5,2.86,1e-08,1e-08,1e-08,0.001,1e-08,1e-08,1e-08
AA5xxx Card - 044A.docx,AA5xxx,044A,96.649,0.07,0.19,1e-08,0.2,2.89,1e-08,1e-08,1e-08,0.001,1e-08,1e-08,1e-08,95.0,215.5,24.2,28.0,,DC,95.25,520/19800,1.0,19800.0,520.0,520.0,19800.0,1.0,99.0,70.0,350/7200,batch,1,7200,350.0,350.0,1,1,0,18.4,,,0,0,0,0,1,520°C 5.5 hours,"batch annealing, 350°C 2 hours",3.351,1,100.0,1e-08,0.07,0.19,1e-08,0.2,2.89,1e-08,1e-08,1e-08,0.001,1e-08,1e-08,1e-08
AA5xxx Card - 044D.docx,AA5xxx,044D,96.649,0.07,0.19,1e-08,0.2,2.89,1e-08,1e-08,1e-08,0.001,1e-08,1e-08,1e-08,105.0,223.0,,26.0,,DC,95.25,520/19800,1.0,19800.0,520.0,520.0,19800.0,1.0,99.0,70.0,320/7200,batch,1,7200,320.0,320.0,1,1,0,12.9,,,0,0,0,1,1,520°C 5.5 hours,"batch annealing, 320°C 2 hours",3.351,1,100.0,1e-08,0.07,0.19,1e-08,0.2,2.89,1e-08,1e-08,1e-08,0.001,1e-08,1e-08,1e-08
AA5xxx Card - 045B.docx,AA5xxx,045B,96.856,0.08,0.19,1e-08,0.003,2.87,1e-08,1e-08,1e-08,0.001,1e-08,1e-08,1e-08,83.0,210.0,,22.0,,DC,95.25,520/19800,1.0,19800.0,520.0,520.0,19800.0,1.0,99.0,70.0,265/7200,batch,1,7200,265.0,265.0,0,0,0,21.6,,,0,0,0,1,1,520°C 5.5 hours,"batch annealing, 265°C 2 hours",3.144,1,100.0,1e-08,0.08,0.19,1e-08,0.003,2.87,1e-08,1e-08,1e-08,0.001,1e-08,1e-08,1e-08
AA5xxx Card - 045E.docx,AA5xxx,045E,96.856,0.08,0.19,1e-08,0.003,2.87,1e-08,1e-08,1e-08,0.001,1e-08,1e-08,1e-08,87.0,212.0,,21.0,,DC,95.25,520/19800,1.0,19800.0,520.0,520.0,19800.0,1.0,99.0,70.0,350/7200,batch,1,7200,350.0,350.0,1,1,0,17.7,,,0,0,0,1,1,520°C 5.5 hours,"batch annealing, 350°C 2 hours",3.144,1,100.0,1e-08,0.08,0.19,1e-08,0.003,2.87,1e-08,1e-08,1e-08,0.001,1e-08,1e-08,1e-08
AA5xxx Card - 046B.docx,AA5xxx,046B,94.16,0.07,0.1,1e-08,0.02,5.6,0.04,1e-08,1e-08,0.01,1e-08,1e-08,1e-08,125.0,276.0,,26.0,,mould casting,76.2,520/19800,1.0,19800.0,520.0,520.0,19800.0,1.0,95.0,60.0,450/120,flash,1,120,450.0,450.0,1,0,1,35.0,,,0,0,0,1,1,520°C 5.5 hours,"flash annealing, 450°C 2 minutes",5.84,1,100.0,1e-08,0.07,0.1,1e-08,0.02,5.6,0.04,1e-08,1e-08,0.01,1e-08,1e-08,1e-08
AA5xxx Card - 047A.docx,AA5xxx,047A,99.82,0.03,0.13,1e-08,1e-08,1e-08,1e-08,1e-08,1e-08,0.02,1e-08,1e-08,1e-08,50.0,100.0,,29.0,0.0,strip casting,4.0,500/3600,1.0,3600.0,500.0,500.0,0.0,0.0,0.0,75.0,450/3600,flash,1,3600,450.0,450.0,1,0,1,250.0,,,0,0,0,1,0,500°C 1 hour,"flash annealing, 450°C 1 hour",0.18,1,100.0,1e-08,0.03,0.13,1e-08,1e-08,1e-08,1e-08,1e-08,1e-08,0.02,1e-08,1e-08,1e-08
AA5xxx Card - 047D.docx,AA5xxx,047D,92.52,0.04,0.12,1e-08,1e-08,7.3,1e-08,1e-08,1e-08,0.02,1e-08,1e-08,1e-08,138.0,325.0,,30.0,1.1,strip casting,4.0,500/3600,1.0,3600.0,500.0,500.0,0.0,0.0,0.0,75.0,450/3600,flash,1,3600,450.0,450.0,1,0,1,17.4,,,0,0,0,1,0,500°C 1 hour,"flash annealing, 450°C 1 hour",7.48,1,100.0,1e-08,0.04,0.12,1e-08,1e-08,7.3,1e-08,1e-08,1e-08,0.02,1e-08,1e-08,1e-08
AA5xxx Card - 049A.docx,AA5xxx,049A,97.885,0.19,0.16,0.09,0.28,1.39,1e-08,1e-08,1e-08,0.005,1e-08,1e-08,1e-08,89.5,182.0,,22.3,0.0,DC,635.0,520/18000,1.0,18000.0,520.0,520.0,18000.0,1.0,96.5,60.0,550/28800,batch,1,28800,550.0,550.0,1,1,0,108.0,,,0,0,0,1,0,520°C > 5 hours,"Batch annealing, 550°C 8 hours",2.115,1,100.0,1e-08,0.19,0.16,0.09,0.28,1.39,1e-08,1e-08,1e-08,0.005,1e-08,1e-08,1e-08
AA5xxx Card - 050B.docx,AA5xxx,050B,96.994,0.068,0.32,1e-08,0.067,2.55,1e-08,1e-08,1e-08,0.001,1e-08,1e-08,1e-08,78.0,185.0,,24.0,0.2,DC,635.0,520/18000,1.0,18000.0,520.0,520.0,18000.0,1.0,99.2,72.0,350/7200,batch,1,7200,350.0,350.0,1,1,0,27.5,,,0,0,0,1,0,520°C 5 hours,"batch annealing, 350°C 2 hours",3.006,1,100.0,1e-08,0.068,0.32,1e-08,0.067,2.55,1e-08,1e-08,1e-08,0.001,1e-08,1e-08,1e-08
AA5xxx Card - 050E.docx,AA5xxx,050E,96.994,0.068,0.32,1e-08,0.067,2.55,1e-08,1e-08,1e-08,0.001,1e-08,1e-08,1e-08,100.0,198.0,,22.0,1.1,DC,635.0,520/18000,1.0,18000.0,520.0,520.0,18000.0,1.0,99.2,85.0,325/7200,batch,1,7200,325.0,325.0,1,1,0,13.0,,,0,0,0,1,0,520°C 5 hours,"batch annealing, 325°C 2 hours",3.006,1,100.0,1e-08,0.068,0.32,1e-08,0.067,2.55,1e-08,1e-08,1e-08,0.001,1e-08,1e-08,1e-08
AA5xxx Card - 051C.docx,AA5xxx,051C,96.479,0.06,0.2,1e-08,0.26,3.0,1e-08,1e-08,1e-08,0.001,1e-08,1e-08,1e-08,92.0,215.0,,26.0,0.52,DC,635.0,520/18000,1.0,18000.0,520.0,520.0,18000.0,1.0,99.2,50.0,350/7200,batch,1,7200,350.0,350.0,1,1,0,27.7,,,0,0,0,1,0,520°C 5 hours,"batch annealing, 350°C 2 hours",3.521,1,100.0,1e-08,0.06,0.2,1e-08,0.26,3.0,1e-08,1e-08,1e-08,0.001,1e-08,1e-08,1e-08
AA5xxx Card - 052B.docx,AA5xxx,052B,94.967,0.04,0.23,1e-08,0.002,4.76,1e-08,1e-08,1e-08,0.001,1e-08,1e-08,1e-08,118.0,245.0,,25.0,0.8,DC,635.0,520/18000,1.0,18000.0,520.0,520.0,18000.0,1.0,99.2,65.0,350/7200,batch,1,7200,350.0,350.0,1,1,0,22.0,,,0,0,0,1,0,520°C 5 hours,"batch annealing, 350°C 2 hours",5.033,1,100.0,1e-08,0.04,0.23,1e-08,0.002,4.76,1e-08,1e-08,1e-08,0.001,1e-08,1e-08,1e-08
AA5xxx Card - 053A.docx,AA5xxx,053A,94.779,0.06,0.2,1e-08,0.2,4.76,1e-08,1e-08,1e-08,0.001,1e-08,1e-08,1e-08,120.0,250.0,,26.0,0.25,DC,635.0,520/18000,1.0,18000.0,520.0,520.0,18000.0,1.0,99.2,50.0,350/7200,batch,1,7200,350.0,350.0,1,1,0,30.0,,,0,0,0,1,0,520°C 5 hours,"batch annealing, 350°C 2 hours",5.221,1,100.0,1e-08,0.06,0.2,1e-08,0.2,4.76,1e-08,1e-08,1e-08,0.001,1e-08,1e-08,1e-08
AA5xxx Card - 053D.docx,AA5xxx,053D,94.779,0.06,0.2,1e-08,0.2,4.76,1e-08,1e-08,1e-08,0.001,1e-08,1e-08,1e-08,150.0,305.0,,22.0,1.4,DC,635.0,520/18000,1.0,18000.0,520.0,520.0,18000.0,1.0,99.2,72.0,350/7200,batch,1,7200,350.0,350.0,1,1,0,10.5,,,0,0,0,1,0,520°C 5 hours,"batch annealing, 350°C 2 hours",5.221,1,100.0,1e-08,0.06,0.2,1e-08,0.2,4.76,1e-08,1e-08,1e-08,0.001,1e-08,1e-08,1e-08
AA5xxx Card - 054C.docx,AA5xxx,054C,98.739,0.06,0.19,1e-08,1e-08,1.01,1e-08,1e-08,1e-08,0.001,1e-08,1e-08,1e-08,50.0,116.0,,30.3,0.0,DC,20.0,550/21600,1.0,21600.0,550.0,550.0,21600.0,1.0,0.0,0.0,,none,0,0,,,0,0,0,79.0,,,0,0,0,1,0,550°C 6 hours,no,1.261,1,100.0,1e-08,0.06,0.19,1e-08,1e-08,1.01,1e-08,1e-08,1e-08,0.001,1e-08,1e-08,1e-08
AA5xxx Card - 055B.docx,AA5xxx,055B,96.055,0.05,0.51,0.01,0.25,3.11,1e-08,1e-08,0.01,0.005,1e-08,1e-08,1e-08,121.0,241.0,21.4,23.3,1.2,steel mould (~0.4°C/sec),63.5,540/18000,1.0,18000.0,540.0,540.0,18000.0,1.0,86.5,68.3,350/7200,other,1,7200,350.0,350.0,0,0,0,23.2,yes,,0,0,0,0,0,540°C > 5 hours,350°C 2 hours,3.945,1,100.0,1e-08,0.05,0.51,0.01,0.25,3.11,1e-08,1e-08,0.01,0.005,1e-08,1e-08,1e-08
AA5xxx Card - 055E.docx,AA5xxx,055E,96.347,0.05,0.05,0.26,0.25,3.03,1e-08,1e-08,0.01,0.003,1e-08,1e-08,1e-08,102.0,232.0,21.1,27.3,1.0,steel mould (~0.4°C/sec),63.5,540/18000,1.0,18000.0,540.0,540.0,18000.0,1.0,86.5,68.3,350/7200,other,1,7200,350.0,350.0,0,0,0,31.0,yes,,0,0,0,0,0,540°C > 5 hours,350°C 2 hours,3.653,1,100.0,1e-08,0.05,0.05,0.26,0.25,3.03,1e-08,1e-08,0.01,0.003,1e-08,1e-08,1e-08
AA5xxx Card - 055H.docx,AA5xxx,055H,95.557,0.05,0.05,1.02,0.25,3.06,1e-08,1e-08,0.01,0.003,1e-08,1e-08,1e-08,105.0,245.0,17.0,20.7,0.8,steel mould (~0.4°C/sec),63.5,540/18000,1.0,18000.0,540.0,540.0,18000.0,1.0,86.5,68.3,350/7200,other,1,7200,350.0,350.0,0,0,0,36.5,yes,,0,0,0,0,0,540°C > 5 hours,350°C 2 hours,4.443,1,100.0,1e-08,0.05,0.05,1.02,0.25,3.06,1e-08,1e-08,0.01,0.003,1e-08,1e-08,1e-08
AA5xxx Card - 055K.docx,AA5xxx,055K,95.977,0.74,0.05,0.01,0.25,2.96,1e-08,1e-08,0.01,0.003,1e-08,1e-08,1e-08,95.0,196.0,20.3,23.7,1.4,steel mould (~0.4°C/sec),63.5,540/18000,1.0,18000.0,540.0,540.0,18000.0,1.0,86.5,68.3,350/7200,other,1,7200,350.0,350.0,0,0,0,18.3,yes,,0,0,0,0,0,540°C > 5 hours,350°C 2 hours,4.023,1,100,1e-08,0.74,0.05,0.01,0.25,2.96,1e-08,1e-08,0.01,0.003,1e-08,1e-08,1e-08
AA5xxx Card - 055N.docx,AA5xxx,055N,96.077,0.05,0.05,0.01,0.24,3.03,1e-08,1e-08,0.54,0.003,1e-08,1e-08,1e-08,101.0,226.0,22.8,26.7,1.3,steel mould (~0.4°C/sec),63.5,540/18000,1.0,18000.0,540.0,540.0,18000.0,1.0,86.5,68.3,350/7200,other,1,7200,350.0,350.0,0,0,0,48.8,yes,,0,0,0,0,0,540°C > 5 hours,350°C 2 hours,3.923,1,100.0,1e-08,0.05,0.05,0.01,0.24,3.03,1e-08,1e-08,0.54,0.003,1e-08,1e-08,1e-08
AA5xxx Card - 055P.docx,AA5xxx,055P,95.617,0.05,0.05,0.01,0.24,3.01,1e-08,1e-08,1.02,0.003,1e-08,1e-08,1e-08,99.0,230.0,20.7,24.3,1.1,steel mould (~0.4°C/sec),63.5,540/18000,1.0,18000.0,540.0,540.0,18000.0,1.0,86.5,68.3,350/7200,other,1,7200,350.0,350.0,0,0,0,51.6,yes,,0,0,0,0,0,540°C > 5 hours,350°C 2 hours,4.383,1,100.0,1e-08,0.05,0.05,0.01,0.24,3.01,1e-08,1e-08,1.02,0.003,1e-08,1e-08,1e-08