File: baseline_out/VIEW_UniformEL.csv
file_name,alloy,card,Al,Si,Fe,Cu,Mn,Mg,Cr,Ni,Zn,Ti,Zr,Sc,Other,YS (MPa),UTS (MPa),Uniform EL (percentage),Fracture EL (percentage),YPE (percentage),Casting,Ingot thickness (mm),Homogenization (Celsius/Seconds),homog_steps,homog_time_total_s,homog_temp_max_C,homog_T_time_weighted_C,homog_time_at_ge_520C_s,adequate_homog,Hot rolling reduction (percentage),Cold rolling reduction (percentage),Recrystallization annealing (Celsius/Seconds),recryst_type,recryst_steps,recryst_time_total_s,recryst_temp_max_C,recryst_T_time_weighted_C,adequate_recryst,adequate_recryst_batch,adequate_recryst_flash,Mean grain size (µm),Secondary phase particle size and density,Crystallographic texture,flag_missing_YS,flag_missing_UTS,flag_missing_FractureEL,flag_missing_UniformEL,flag_missing_YPE,Homogenization_RAW,Recrystallization annealing_RAW,comp_sum_before,comp_fix_applied,comp_sum_after,Al_RAW,Si_RAW,Fe_RAW,Cu_RAW,Mn_RAW,Mg_RAW,Cr_RAW,Ni_RAW,Zn_RAW,Ti_RAW,Zr_RAW,Sc_RAW,Other_RAW
AA5xxx Card - 002A.docx,AA5xxx,002A,96.405,0.06,0.19,1e-08,0.26,3.08,1e-08,1e-08,1e-08,0.005,1e-08,1e-08,1e-08,225.5,276.4,9.3,9.3,0.0,DC,635.0,540/18000,1.0,18000.0,540.0,540.0,18000.0,1.0,99.6,86.0,250/3600,flash,1,3600,250.0,250.0,0,0,0,2.0,,,0,0,0,0,0,540°C > 5 hours,"Flash annealing, 250°C 1 hour",3.595,1,100.0,1e-08,0.06,0.19,1e-08,0.26,3.08,1e-08,1e-08,1e-08,0.005,1e-08,1e-08,1e-08
AA5xxx Card - 002B.docx,AA5xxx,002B,96.405,0.06,0.19,1e-08,0.26,3.08,1e-08,1e-08,1e-08,0.005,1e-08,1e-08,1e-08,121.6,231.0,15.1,17.3,1.0,DC,635.0,540/18000,1.0,18000.0,540.0,540.0,18000.0,1.0,99.6,86.0,275/3600,flash,1,3600,275.0,275.0,0,0,0,6.5,,,0,0,0,0,0,540°C > 5 hours,"Flash annealing, 275°C 1 hour",3.595,1,100.0,1e-08,0.06,0.19,1e-08,0.26,3.08,1e-08,1e-08,1e-08,0.005,1e-08,1e-08,1e-08
AA5xxx Card - 002C.docx,AA5xxx,002C,96.405,0.06,0.19,1e-08,0.26,3.08,1e-08,1e-08,1e-08,0.005,1e-08,1e-08,1e-08,117.7,227.7,17.2,18.8,2.0,DC,635.0,540/18000,1.0,18000.0,540.0,540.0,18000.0,1.0,99.6,86.0,300/3600,flash,1,3600,300.0,300.0,1,0,1,7.3,,,0,0,0,0,0,540°C > 5 hours,"Flash annealing, 300°C 1 hour",3.595,1,100.0,1e-08,0.06,0.19,1e-08,0.26,3.08,1e-08,1e-08,1e-08,0.005,1e-08,1e-08,1e-08
AA5xxx Card - 002D.docx,AA5xxx,002D,96.405,0.06,0.19,1e-08,0.26,3.08,1e-08,1e-08,1e-08,0.005,1e-08,1e-08,1e-08,115.8,229.5,21.0,22.8,2.0,DC,635.0,540/18000,1.0,18000.0,540.0,540.0,18000.0,1.0,99.6,86.0,350/3600,flash,1,3600,350.0,350.0,1,0,1,8.2,,,0,0,0,0,0,540°C > 5 hours,"Flash annealing, 350°C 1 hour",3.595,1,100.0,1e-08,0.06,0.19,1e-08,0.26,3.08,1e-08,1e-08,1e-08,0.005,1e-08,1e-08,1e-08
AA5xxx Card - 002E.docx,AA5xxx,002E,96.405,0.06,0.19,1e-08,0.26,3.08,1e-08,1e-08,1e-08,0.005,1e-08,1e-08,1e-08,219.4,264.9,14.2,14.3,0.0,DC,635.0,540/18000,1.0,18000.0,540.0,540.0,18000.0,1.0,99.6,96.0,250/3600,flash,1,3600,250.0,250.0,0,0,0,2.0,,,0,0,0,0,0,540°C > 5 hours,"Flash annealing, 250°C 1 hour",3.595,1,100.0,1e-08,0.06,0.19,1e-08,0.26,3.08,1e-08,1e-08,1e-08,0.005,1e-08,1e-08,1e-08
AA5xxx Card - 002F.docx,AA5xxx,002F,96.405,0.06,0.19,1e-08,0.26,3.08,1e-08,1e-08,1e-08,0.005,1e-08,1e-08,1e-08,119.7,224.8,17.3,18.3,2.0,DC,635.0,540/18000,1.0,18000.0,540.0,540.0,18000.0,1.0,99.6,96.0,300/3600,flash,1,3600,300.0,300.0,1,0,1,7.2,,,0,0,0,0,0,540°C > 5 hours,"Flash annealing, 300°C 1 hour",3.595,1,100.0,1e-08,0.06,0.19,1e-08,0.26,3.08,1e-08,1e-08,1e-08,0.005,1e-08,1e-08,1e-08
AA5xxx Card - 002G.docx,AA5xxx,002G,96.405,0.06,0.19,1e-08,0.26,3.08,1e-08,1e-08,1e-08,0.005,1e-08,1e-08,1e-08,114.5,224.7,21.1,21.1,2.0,DC,635.0,540/18000,1.0,18000.0,540.0,540.0,18000.0,1.0,99.6,96.0,350/3600,flash,1,3600,350.0,350.0,1,0,1,7.8,,,0,0,0,0,0,540°C > 5 hours,"Flash annealing, 350°C 1 hour",3.595,1,100.0,1e-08,0.06,0.19,1e-08,0.26,3.08,1e-08,1e-08,1e-08,0.005,1e-08,1e-08,1e-08
AA5xxx Card - 003A.docx,AA5xxx,003A,96.405,0.06,0.19,1e-08,0.26,3.08,1e-08,1e-08,1e-08,0.005,1e-08,1e-08,1e-08,96.18,222.72,24.17,27.52,0.5,DC,635.0,540/18000,1.0,18000.0,540.0,540.0,18000.0,1.0,99.2,50.0,350/7200,batch,1,7200,350.0,350.0,1,1,0,27.4,,5.0,0,0,0,0,0,540°C > 5 hours,"Batch annealing, 350°C 2 hours",3.595,1,100.0,1e-08,0.06,0.19,1e-08,0.26,3.08,1e-08,1e-08,1e-08,0.005,1e-08,1e-08,1e-08
AA5xxx Card - 003B.docx,AA5xxx,003B,96.405,0.06,0.19,1e-08,0.26,3.08,1e-08,1e-08,1e-08,0.005,1e-08,1e-08,1e-08,88.57,220.73,19.16,23.13,0.8,DC,635.0,540/18000,1.0,18000.0,540.0,540.0,18000.0,1.0,99.2,0.0,340/0,direct,1,0,340.0,340.0,0,0,0,26.6,,17.0,0,0,0,0,0,540°C > 5 hours,"direct hot rolled to gauge, exit temperature ~ 340°C.",3.595,1,100.0,1e-08,0.06,0.19,1e-08,0.26,3.08,1e-08,1e-08,1e-08,0.005,1e-08,1e-08,1e-08
AA5xxx Card - 003C.docx,AA5xxx,003C,96.405,0.06,0.19,1e-08,0.26,3.08,1e-08,1e-08,1e-08,0.005,1e-08,1e-08,1e-08,98.8,223.8,20.4,24.2,1.0,DC,635.0,540/18000,1.0,18000.0,540.0,540.0,18000.0,1.0,99.2,47.0,350/7200,batch,1,7200,350.0,350.0,1,1,0,17.3,,3.7,0,0,0,0,0,540°C > 5 hours,"Batch annealing, 350°C 2 hours",3.595,1,100.0,1e-08,0.06,0.19,1e-08,0.26,3.08,1e-08,1e-08,1e-08,0.005,1e-08,1e-08,1e-08
AA5xxx Card - 003D.docx,AA5xxx,003D,96.405,0.06,0.19,1e-08,0.26,3.08,1e-08,1e-08,1e-08,0.005,1e-08,1e-08,1e-08,101.45,220.67,20.0,23.0,1.5,DC,635.0,540/18000,1.0,18000.0,540.0,540.0,18000.0,1.0,99.2,54.0,350/7200,batch,1,7200,350.0,350.0,1,1,0,19.2,,3.8,0,0,0,0,0,540°C > 5 hours,"Batch annealing, 350°C 2 hours",3.595,1,100.0,1e-08,0.06,0.19,1e-08,0.26,3.08,1e-08,1e-08,1e-08,0.005,1e-08,1e-08,1e-08
AA5xxx Card - 020A.docx,AA5xxx,020A,94.875,0.03,0.04,1e-08,0.52,4.53,1e-08,1e-08,1e-08,0.005,1e-08,1e-08,1e-08,156.7,311.3,21.0,31.7,,DC,95.25,540/19800,1.0,19800.0,540.0,540.0,19800.0,1.0,89.0,81.0,350/7200,batch,1,7200,350.0,350.0,1,1,0,13.6,,,0,0,0,0,1,"540°C, 5 - 6 hours","batch annealing, 350°C 2 hours",5.125,1,100.0,1e-08,0.03,0.04,1e-08,0.52,4.53,1e-08,1e-08,1e-08,0.005,1e-08,1e-08,1e-08
AA5xxx Card - 020B.docx,AA5xxx,020B,94.305,0.03,0.05,1e-08,0.99,4.62,1e-08,1e-08,1e-08,0.005,1e-08,1e-08,1e-08,173.0,344.5,21.5,24.0,,DC,95.25,540/19800,1.0,19800.0,540.0,540.0,19800.0,1.0,89.0,81.0,350/7200,batch,1,7200,350.0,350.0,1,1,0,10.8,Yes,,0,0,0,0,1,"540°C, 5 - 6 hours","batch annealing, 350°C 2 hours",5.695,1,100.0,1e-08,0.03,0.05,1e-08,0.99,4.62,1e-08,1e-08,1e-08,0.005,1e-08,1e-08,1e-08
AA5xxx Card - 020C.docx,AA5xxx,020C,93.855,0.04,0.05,1e-08,1.44,4.61,1e-08,1e-08,1e-08,0.005,1e-08,1e-08,1e-08,193.0,365.0,19.5,22.0,,DC,95.25,540/19800,1.0,19800.0,540.0,540.0,19800.0,1.0,89.0,81.0,350/7200,batch,1,7200,350.0,350.0,1,1,0,10.0,Yes,,0,0,0,0,1,"540°C, 5 - 6 hours","batch annealing, 350°C 2 hours",6.145,1,100.0,1e-08,0.04,0.05,1e-08,1.44,4.61,1e-08,1e-08,1e-08,0.005,1e-08,1e-08,1e-08
AA5xxx Card - 020D.docx,AA5xxx,020D,94.765,0.06,0.14,1e-08,0.51,4.52,1e-08,1e-08,1e-08,0.005,1e-08,1e-08,1e-08,162.0,313.4,20.0,26.0,,DC,95.25,540/19800,1.0,19800.0,540.0,540.0,19800.0,1.0,89.0,81.0,350/7200,batch,1,7200,350.0,350.0,1,1,0,11.4,Yes,,0,0,0,0,1,"540°C, 5 - 6 hours","batch annealing, 350°C 2 hours",5.235,1,100.0,1e-08,0.06,0.14,1e-08,0.51,4.52,1e-08,1e-08,1e-08,0.005,1e-08,1e-08,1e-08
AA5xxx Card - 020E.docx,AA5xxx,020E,94.165,0.06,0.16,1e-08,0.99,4.62,1e-08,1e-08,1e-08,0.005,1e-08,1e-08,1e-08,176.0,347.0,20.3,25.0,,DC,95.25,540/19800,1.0,19800.0,540.0,540.0,19800.0,1.0,89.0,81.0,350/7200,batch,1,7200,350.0,350.0,1,1,0,10.7,Yes,,0,0,0,0,1,"540°C, 5 - 6 hours","batch annealing, 350°C 2 hours",5.835,1,100.0,1e-08,0.06,0.16,1e-08,0.99,4.62,1e-08,1e-08,1e-08,0.005,1e-08,1e-08,1e-08
AA5xxx Card - 020F.docx,AA5xxx,020F,93.595,0.07,0.18,1e-08,1.48,4.67,1e-08,1e-08,1e-08,0.005,1e-08,1e-08,1e-08,186.7,362.0,18.0,20.0,,DC,95.25,540/19800,1.0,19800.0,540.0,540.0,19800.0,1.0,89.0,81.0,350/7200,batch,1,7200,350.0,350.0,1,1,0,9.9,Yes,,0,0,0,0,1,"540°C, 5 - 6 hours","batch annealing, 350°C 2 hours",6.405,1,100.0,1e-08,0.07,0.18,1e-08,1.48,4.67,1e-08,1e-08,1e-08,0.005,1e-08,1e-08,1e-08
AA5xxx Card - 020G.docx,AA5xxx,020G,94.655,0.06,0.26,1e-08,0.51,4.51,1e-08,1e-08,1e-08,0.005,1e-08,1e-08,1e-08,164.7,316.0,21.3,27.3,,DC,95.25,540/19800,1.0,19800.0,540.0,540.0,19800.0,1.0,89.0,81.0,350/7200,batch,1,7200,350.0,350.0,1,1,0,10.5,Yes,,0,0,0,0,1,"540°C, 5 - 6 hours","batch annealing, 350°C 2 hours",5.345,1,100.0,1e-08,0.06,0.26,1e-08,0.51,4.51,1e-08,1e-08,1e-08,0.005,1e-08,1e-08,1e-08
AA5xxx Card - 020H.docx,AA5xxx,020H,94.105,0.06,0.27,1e-08,0.95,4.61,1e-08,1e-08,1e-08,0.005,1e-08,1e-08,1e-08,176.0,341.3,21.3,25.3,,DC,95.25,540/19800,1.0,19800.0,540.0,540.0,19800.0,1.0,89.0,81.0,350/7200,batch,1,7200,350.0,350.0,1,1,0,10.2,Yes,,0,0,0,0,1,"540°C, 5 - 6 hours","batch annealing, 350°C 2 hours",5.895,1,100.0,1e-08,0.06,0.27,1e-08,0.95,4.61,1e-08,1e-08,1e-08,0.005,1e-08,1e-08,1e-08
AA5xxx Card - 020I.docx,AA5xxx,020I,93.535,0.06,0.28,1e-08,1.45,4.67,1e-08,1e-08,1e-08,0.005,1e-08,1e-08,1e-08,187.7,357.0,18.3,21.0,,DC,95.25,540/19800,1.0,19800.0,540.0,540.0,19800.0,1.0,89.0,81.0,350/7200,batch,1,7200,350.0,350.0,1,1,0,9.3,Yes,,0,0,0,0,1,"540°C, 5 - 6 hours","batch annealing, 350°C 2 hours",6.465,1,100.0,1e-08,0.06,0.28,1e-08,1.45,4.67,1e-08,1e-08,1e-08,0.005,1e-08,1e-08,1e-08
AA5xxx Card - 021A.docx,AA5xxx,021A,98.615,0.08,0.45,1e-08,0.05,0.8,1e-08,1e-08,1e-08,0.005,1e-08,1e-08,1e-08,54.2,129.9,24.9,25.1,,DC,635.0,540/18000,1.0,18000.0,540.0,540.0,18000.0,1.0,99.0,75.0,300/7200,batch,1,7200,300.0,300.0,1,1,0,20.7,,,0,0,0,0,1,540°C > 5 hours,"batch annealing, 300°C 2 hours",1.385,1,100.0,1e-08,0.08,0.45,1e-08,0.05,0.8,1e-08,1e-08,1e-08,0.005,1e-08,1e-08,1e-08
AA5xxx Card - 021B.docx,AA5xxx,021B,98.615,0.08,0.45,1e-08,0.05,0.8,1e-08,1e-08,1e-08,0.005,1e-08,1e-08,1e-08,50.0,121.8,27.1,27.2,,DC,635.0,540/18000,1.0,18000.0,540.0,540.0,18000.0,1.0,99.0,75.0,320/7200,batch,1,7200,320.0,320.0,1,1,0,30.0,,,0,0,0,0,1,540°C > 5 hours,"batch annealing, 320°C 2 hours",1.385,1,100.0,1e-08,0.08,0.45,1e-08,0.05,0.8,1e-08,1e-08,1e-08,0.005,1e-08,1e-08,1e-08
AA5xxx Card - 021C.docx,AA5xxx,021C,98.615,0.08,0.45,1e-08,0.05,0.8,1e-08,1e-08,1e-08,0.005,1e-08,1e-08,1e-08,50.0,121.2,28.4,28.5,,DC,635.0,540/18000,1.0,18000.0,540.0,540.0,18000.0,1.0,99.0,75.0,340/7200,batch,1,7200,340.0,340.0,1,1,0,30.5,,,0,0,0,0,1,540°C > 5 hours,"batch annealing, 340°C 2 hours",1.385,1,100.0,1e-08,0.08,0.45,1e-08,0.05,0.8,1e-08,1e-08,1e-08,0.005,1e-08,1e-08,1e-08
AA5xxx Card - 021D.docx,AA5xxx,021D,98.615,0.08,0.45,1e-08,0.05,0.8,1e-08,1e-08,1e-08,0.005,1e-08,1e-08,1e-08,50.0,110.6,37.9,38.0,,DC,635.0,540/18000,1.0,18000.0,540.0,540.0,18000.0,1.0,99.0,63.0,300/7200,batch,1,7200,300.0,300.0,1,1,0,36.1,,,0,0,0,0,1,540°C > 5 hours,"batch annealing, 300°C 2 hours",1.385,1,100.0,1e-08,0.08,0.45,1e-08,0.05,0.8,1e-08,1e-08,1e-08,0.005,1e-08,1e-08,1e-08
AA5xxx Card - 022A.docx,AA5xxx,022A,98.715,0.08,0.1,1e-08,0.1,1.0,1e-08,1e-08,1e-08,0.005,1e-08,1e-08,1e-08,50.0,112.5,17.4,17.5,0.0,DC,635.0,540/18000,1.0,18000.0,540.0,540.0,18000.0,1.0,99.6,50.0,325/7200,batch,1,7200,325.0,325.0,1,1,0,60.0,,,0,0,0,0,0,540°C > 5 hours,"batch annealing, 325°C 2 hours",1.285,1,100.0,1e-08,0.08,0.1,1e-08,0.1,1.0,1e-08,1e-08,1e-08,0.005,1e-08,1e-08,1e-08
AA5xxx Card - 022B.docx,AA5xxx,022B,98.715,0.08,0.1,1e-08,0.1,1.0,1e-08,1e-08,1e-08,0.005,1e-08,1e-08,1e-08,50.0,107.3,19.7,19.7,0.0,DC,635.0,540/18000,1.0,18000.0,540.0,540.0,18000.0,1.0,99.6,50.0,350/7200,batch,1,7200,350.0,350.0,1,1,0,75.0,,,0,0,0,0,0,540°C > 5 hours,"batch annealing, 350°C 2 hours",1.285,1,100.0,1e-08,0.08,0.1,1e-08,0.1,1.0,1e-08,1e-08,1e-08,0.005,1e-08,1e-08,1e-08
AA5xxx Card - 022C.docx,AA5xxx,022C,98.715,0.08,0.1,1e-08,0.1,1.0,1e-08,1e-08,1e-08,0.005,1e-08,1e-08,1e-08,50.0,106.2,19.3,19.3,0.0,DC,635.0,540/18000,1.0,18000.0,540.0,540.0,18000.0,1.0,99.6,50.0,375/7200,batch,1,7200,375.0,375.0,1,1,0,80.0,,,0,0,0,0,0,540°C > 5 hours,"batch annealing, 375°C 2 hours",1.285,1,100.0,1e-08,0.08,0.1,1e-08,0.1,1.0,1e-08,1e-08,1e-08,0.005,1e-08,1e-08,1e-08
AA5xxx Card - 022D.docx,AA5xxx,022D,98.715,0.08,0.1,1e-08,0.1,1.0,1e-08,1e-08,1e-08,0.005,1e-08,1e-08,1e-08,50.0,112.7,16.6,16.7,0.0,DC,635.0,540/18000,1.0,18000.0,540.0,540.0,18000.0,1.0,99.6,60.0,325/7200,batch,1,7200,325.0,325.0,1,1,0,62.0,,,0,0,0,0,0,540°C > 5 hours,"batch annealing, 325°C 2 hours",1.285,1,100.0,1e-08,0.08,0.1,1e-08,0.1,1.0,1e-08,1e-08,1e-08,0.005,1e-08,1e-08,1e-08
AA5xxx Card - 022E.docx,AA5xxx,022E,98.715,0.08,0.1,1e-08,0.1,1.0,1e-08,1e-08,1e-08,0.005,1e-08,1e-08,1e-08,50.0,108.1,20.0,20.1,0.0,DC,635.0,540/18000,1.0,18000.0,540.0,540.0,18000.0,1.0,99.6,60.0,350/7200,batch,1,7200,350.0,350.0,1,1,0,65.0,,,0,0,0,0,0,540°C > 5 hours,"batch annealing, 350°C 2 hours",1.285,1,100.0,1e-08,0.08,0.1,1e-08,0.1,1.0,1e-08,1e-08,1e-08,0.005,1e-08,1e-08,1e-08
AA5xxx Card - 022F.docx,AA5xxx,022F,98.715,0.08,0.1,1e-08,0.1,1.0,1e-08,1e-08,1e-08,0.005,1e-08,1e-08,1e-08,50.0,107.4,20.0,20.2,0.0,DC,635.0,540/18000,1.0,18000.0,540.0,540.0,18000.0,1.0,99.6,60.0,375/7200,batch,1,7200,375.0,375.0,1,1,0,75.0,,,0,0,0,0,0,540°C > 5 hours,"batch annealing, 375°C 2 hours",1.285,1,100.0,1e-08,0.08,0.1,1e-08,0.1,1.0,1e-08,1e-08,1e-08,0.005,1e-08,1e-08,1e-08
AA5xxx Card - 022G.docx,AA5xxx,022G,98.715,0.08,0.1,1e-08,0.1,1.0,1e-08,1e-08,1e-08,0.005,1e-08,1e-08,1e-08,50.0,115.8,19.5,19.5,0.0,DC,635.0,540/18000,1.0,18000.0,540.0,540.0,18000.0,1.0,99.6,70.0,325/7200,batch,1,7200,325.0,325.0,1,1,0,60.0,,,0,0,0,0,0,540°C > 5 hours,"batch annealing, 325°C 2 hours",1.285,1,100.0,1e-08,0.08,0.1,1e-08,0.1,1.0,1e-08,1e-08,1e-08,0.005,1e-08,1e-08,1e-08
AA5xxx Card - 022H.docx,AA5xxx,022H,98.715,0.08,0.1,1e-08,0.1,1.0,1e-08,1e-08,1e-08,0.005,1e-08,1e-08,1e-08,50.0,109.7,21.8,21.9,0.0,DC,635.0,540/18000,1.0,18000.0,540.0,540.0,18000.0,1.0,99.6,70.0,350/7200,batch,1,7200,350.0,350.0,1,1,0,75.0,,,0,0,0,0,0,540°C > 5 hours,"batch annealing, 350°C 2 hours",1.285,1,100.0,1e-08,0.08,0.1,1e-08,0.1,1.0,1e-08,1e-08,1e-08,0.005,1e-08,1e-08,1e-08
AA5xxx Card - 022I.docx,AA5xxx,022I,98.715,0.08,0.1,1e-08,0.1,1.0,1e-08,1e-08,1e-08,0.005,1e-08,1e-08,1e-08,50.0,110.8,21.1,21.3,,DC,635.0,540/18000,1.0,18000.0,540.0,540.0,18000.0,1.0,99.6,70.0,375/7200,batch,1,7200,375.0,375.0,1,1,0,75.0,,,0,0,0,0,1,540°C > 5 hours,"batch annealing, 375°C 2 hours",1.285,1,100.0,1e-08,0.08,0.1,1e-08,0.1,1.0,1e-08,1e-08,1e-08,0.005,1e-08,1e-08,1e-08
AA5xxx Card - 022J.docx,AA5xxx,022J,98.715,0.08,0.1,1e-08,0.1,1.0,1e-08,1e-08,1e-08,0.005,1e-08,1e-08,1e-08,50.0,120.4,17.7,17.7,0.0,DC,635.0,540/18000,1.0,18000.0,540.0,540.0,18000.0,1.0,99.6,79.0,325/7200,batch,1,7200,325.0,325.0,1,1,0,30.0,,,0,0,0,0,0,540°C > 5 hours,"batch annealing, 325°C 2 hours",1.285,1,100.0,1e-08,0.08,0.1,1e-08,0.1,1.0,1e-08,1e-08,1e-08,0.005,1e-08,1e-08,1e-08
AA5xxx Card - 022K.docx,AA5xxx,022K,98.715,0.08,0.1,1e-08,0.1,1.0,1e-08,1e-08,1e-08,0.005,1e-08,1e-08,1e-08,50.0,112.9,19.8,19.8,0.0,DC,635.0,540/18000,1.0,18000.0,540.0,540.0,18000.0,1.0,99.6,79.0,350/7200,batch,1,7200,350.0,350.0,1,1,0,70.0,,,0,0,0,0,0,540°C > 5 hours,"batch annealing, 350°C 2 hours",1.285,1,100.0,1e-08,0.08,0.1,1e-08,0.1,1.0,1e-08,1e-08,1e-08,0.005,1e-08,1e-08,1e-08
AA5xxx Card - 022L.docx,AA5xxx,022L,98.715,0.08,0.1,1e-08,0.1,1.0,1e-08,1e-08,1e-08,0.005,1e-08,1e-08,1e-08,50.0,112.1,20.9,20.9,0.0,DC,635.0,540/18000,1.0,18000.0,540.0,540.0,18000.0,1.0,99.6,79.0,375/7200,batch,1,7200,375.0,375.0,1,1,0,75.0,,,0,0,0,0,0,540°C > 5 hours,"batch annealing, 375°C 2 hours",1.285,1,100.0,1e-08,0.08,0.1,1e-08,0.1,1.0,1e-08,1e-08,1e-08,0.005,1e-08,1e-08,1e-08
AA5xxx Card - 024A.docx,AA5xxx,024A,98.615,0.08,0.45,1e-08,0.05,0.8,1e-08,1e-08,1e-08,0.005,1e-08,1e-08,1e-08,50.0,115.0,23.0,23.5,0.0,DC,635.0,540/18000,1.0,18000.0,540.0,540.0,18000.0,1.0,99.0,70.0,400/7200,batch,1,7200,400.0,400.0,1,1,0,69.4,,,0,0,0,0,0,540°C > 5 hours,"batch annealing, 400°C 2 hours",1.385,1,100.0,1e-08,0.08,0.45,1e-08,0.05,0.8,1e-08,1e-08,1e-08,0.005,1e-08,1e-08,1e-08
AA5xxx Card - 025A.docx,AA5xxx,025A,94.315,0.08,0.3,1e-08,0.7,4.5,0.1,1e-08,1e-08,0.005,1e-08,1e-08,1e-08,174.0,323.0,25.0,26.0,1.6,DC,635.0,540/18000,1.0,18000.0,540.0,540.0,18000.0,1.0,99.0,70.0,400/7200,batch,1,7200,400.0,400.0,1,1,0,28.0,,,0,0,0,0,0,540°C > 5 hours,"batch annealing, 400°C 2 hours",5.685,1,100.0,1e-08,0.08,0.3,1e-08,0.7,4.5,0.1,1e-08,1e-08,0.005,1e-08,1e-08,1e-08
AA5xxx Card - 035A.docx,AA5xxx,035A,95.065,0.03,0.21,0.04,0.34,4.3,0.01,1e-08,1e-08,0.005,1e-08,1e-08,1e-08,128.0,282.0,23.4,25.4,,DC,635.0,540/18000,1.0,18000.0,540.0,540.0,18000.0,1.0,99.5,65.0,350/7200,batch,1,7200,350.0,350.0,1,1,0,34.0,,,0,0,0,0,1,540°C > 5 hours,"batch annealing, 350°C 2 hours",4.935,1,100.0,1e-08,0.03,0.21,0.04,0.34,4.3,0.01,1e-08,1e-08,0.005,1e-08,1e-08,1e-08
AA5xxx Card - 041A.docx,AA5xxx,041A,96.856,0.08,0.19,1e-08,0.003,2.87,1e-08,1e-08,1e-08,0.001,1e-08,1e-08,1e-08,90.0,205.0,22.8,28.7,,DC,95.25,520/19800,1.0,19800.0,520.0,520.0,19800.0,1.0,99.0,70.0,350/7200,batch,1,7200,350.0,350.0,1,1,0,16.0,,,0,0,0,0,1,520°C 5.5 hours,"batch annealing, 350°C 2 hours",3.144,1,100.0,1e-08,0.08,0.19,1e-08,0.003,2.87,1e-08,1e-08,1e-08,0.001,1e-08,1e-08,1e-08
AA5xxx Card - 041B.docx,AA5xxx,041B,96.649,0.07,0.19,1e-08,0.2,2.89,1e-08,1e-08,1e-08,0.001,1e-08,1e-08,1e-08,95.0,215.0,23.9,28.1,,DC,95.25,520/19800,1.0,19800.0,520.0,520.0,19800.0,1.0,99.0,70.0,350/7200,batch,1,7200,350.0,350.0,1,1,0,18.4,,,0,0,0,0,1,520°C 5.5 hours,"batch annealing, 350°C 2 hours",3.351,1,100.0,1e-08,0.07,0.19,1e-08,0.2,2.89,1e-08,1e-08,1e-08,0.001,1e-08,1e-08,1e-08
AA5xxx Card - 041C.docx,AA5xxx,041C,96.369,0.08,0.19,1e-08,0.5,2.86,1e-08,1e-08,1e-08,0.001,1e-08,1e-08,1e-08,101.0,228.0,20.3,24.2,,DC,95.25,520/19800,1.0,19800.0,520.0,520.0,19800.0,1.0,99.0,70.0,350/7200,batch,1,7200,350.0,350.0,1,1,0,19.0,,,0,0,0,0,1,520°C 5.5 hours,"batch annealing, 350°C 2 hours",3.631,1,100.0,1e-08,0.08,0.19,1e-08,0.5,2.86,1e-08,1e-08,1e-08,0.001,1e-08,1e-08,1e-08
AA5xxx Card - 041D.docx,AA5xxx,041D,96.079,0.08,0.18,1e-08,0.78,2.88,1e-08,1e-08,1e-08,0.001,1e-08,1e-08,1e-08,109.0,244.0,21.3,24.0,,DC,95.25,520/19800,1.0,19800.0,520.0,520.0,19800.0,1.0,99.0,70.0,350/7200,batch,1,7200,350.0,350.0,1,1,0,14.7,,,0,0,0,0,1,520°C 5.5 hours,"batch annealing, 350°C 2 hours",3.921,1,100.0,1e-08,0.08,0.18,1e-08,0.78,2.88,1e-08,1e-08,1e-08,0.001,1e-08,1e-08,1e-08
AA5xxx Card - 042B.docx,AA5xxx,042B,96.079,0.08,0.18,1e-08,0.78,2.88,1e-08,1e-08,1e-08,0.001,1e-08,1e-08,1e-08,108.0,245.0,21.5,24.5,,DC,95.25,520/19800,1.0,19800.0,520.0,520.0,19800.0,1.0,99.0,70.0,350/7200,batch,1,7200,350.0,350.0,1,1,0,15.4,,,0,0,0,0,1,520°C 5.5 hours,"batch annealing, 350°C 2 hours",3.921,1,100.0,1e-08,0.08,0.18,1e-08,0.78,2.88,1e-08,1e-08,1e-08,0.001,1e-08,1e-08,1e-08
AA5xxx Card - 043A.docx,AA5xxx,043A,96.369,0.08,0.19,1e-08,0.5,2.86,1e-08,1e-08,1e-08,0.001,1e-08,1e-08,1e-08,100.0,228.0,20.0,24.0,,DC,95.25,520/19800,1.0,19800.0,520.0,520.0,19800.0,1.0,99.0,70.0,350/7200,batch,1,7200,350.0,350.0,1,1,0,19.1,,,0,0,0,0,1,520°C 5.5 hours,"batch annealing, 350°C 2 hours",3.631,1,100.0,1e-08,0.08,0.19,1e-08,0.5,2.86,1e-08,1e-08,1e-08,0.001,1e-08,1e-08,1e-08
AA5xxx Card - 044A.docx,AA5xxx,044A,96.649,0.07,0.19,1e-08,0.2,2.89,1e-08,1e-08,1e-08,0.001,1e-08,1e-08,1e-08,95.0,215.5,24.2,28.0,,DC,95.25,520/19800,1.0,19800.0,520.0,520.0,19800.0,1.0,99.0,70.0,350/7200,batch,1,7200,350.0,350.0,1,1,0,18.4,,,0,0,0,0,1,520°C 5.5 hours,"batch annealing, 350°C 2 hours",3.351,1,100.0,1e-08,0.07,0.19,1e-08,0.2,2.89,1e-08,1e-08,1e-08,0.001,1e-08,1e-08,1e-08
AA5xxx Card - 045F.docx,AA5xxx,045F,96.856,0.08,0.19,1e-08,0.003,2.87,1e-08,1e-08,1e-08,0.001,1e-08,1e-08,1e-08,89.0,205.0,22.5,28.5,,DC,95.25,520/19800,1.0,19800.0,520.0,520.0,19800.0,1.0,99.0,70.0,350/7200,batch,1,7200,350.0,350.0,1,1,0,16.1,,,0,0,0,0,1,520°C 5.5 hours,"batch annealing, 350°C 2 hours",3.144,1,100.0,1e-08,0.08,0.19,1e-08,0.003,2.87,1e-08,1e-08,1e-08,0.001,1e-08,1e-08,1e-08
AA5xxx Card - 050D.docx,AA5xxx,050D,96.994,0.068,0.32,1e-08,0.067,2.55,1e-08,1e-08,1e-08,0.001,1e-08,1e-08,1e-08,94.0,,22.0,22.0,0.9,DC,635.0,520/18000,1.0,18000.0,520.0,520.0,18000.0,1.0,99.2,80.0,325/7200,batch,1,7200,325.0,325.0,1,1,0,13.8,,,0,1,0,0,0,520°C 5 hours,"batch annealing, 325°C 2 hours",3.006,1,100.0,1e-08,0.068,0.32,1e-08,0.067,2.55,1e-08,1e-08,1e-08,0.001,1e-08,1e-08,1e-08
AA5xxx Card - 055A.docx,AA5xxx,055A,96.463,0.05,0.28,0.01,0.29,2.89,1e-08,1e-08,0.01,0.007,1e-08,1e-08,1e-08,107.0,224.0,21.9,25.3,1.2,steel mould (~0.4°C/sec),63.5,540/18000,1.0,18000.0,540.0,540.0,18000.0,1.0,86.5,68.3,350/7200,other,1,7200,350.0,350.0,0,0,0,29.3,yes,,0,0,0,0,0,540°C > 5 hours,350°C 2 hours,3.537,1,100.0,1e-08,0.05,0.28,0.01,0.29,2.89,1e-08,1e-08,0.01,0.007,1e-08,1e-08,1e-08
AA5xxx Card - 055B.docx,AA5xxx,055B,96.055,0.05,0.51,0.01,0.25,3.11,1e-08,1e-08,0.01,0.005,1e-08,1e-08,1e-08,121.0,241.0,21.4,23.3,1.2,steel mould (~0.4°C/sec),63.5,540/18000,1.0,18000.0,540.0,540.0,18000.0,1.0,86.5,68.3,350/7200,other,1,7200,350.0,350.0,0,0,0,23.2,yes,,0,0,0,0,0,540°C > 5 hours,350°C 2 hours,3.945,1,100.0,1e-08,0.05,0.51,0.01,0.25,3.11,1e-08,1e-08,0.01,0.005,1e-08,1e-08,1e-08
AA5xxx Card - 055C.docx,AA5xxx,055C,95.906,0.05,0.73,0.01,0.23,3.06,1e-08,1e-08,0.01,0.004,1e-08,1e-08,1e-08,122.0,243.0,20.8,24.3,1.2,steel mould (~0.4°C/sec),63.5,540/18000,1.0,18000.0,540.0,540.0,18000.0,1.0,86.5,68.3,350/7200,other,1,7200,350.0,350.0,0,0,0,14.4,yes,,0,0,0,0,0,540°C > 5 hours,350°C 2 hours,4.094,1,100.0,1e-08,0.05,0.73,0.01,0.23,3.06,1e-08,1e-08,0.01,0.004,1e-08,1e-08,1e-08
AA5xxx Card - 055D.docx,AA5xxx,055D,95.663,0.05,1.0,0.01,0.23,3.03,1e-08,1e-08,0.01,0.007,1e-08,1e-08,1e-08,127.0,247.0,19.4,21.3,1.4,steel mould (~0.4°C/sec),63.5,540/18000,1.0,18000.0,540.0,540.0,18000.0,1.0,86.5,68.3,350/7200,other,1,7200,350.0,350.0,0,0,0,11.4,yes,,0,0,0,0,0,540°C > 5 hours,350°C 2 hours,4.337,1,100.0,1e-08,0.05,1.0,0.01,0.23,3.03,1e-08,1e-08,0.01,0.007,1e-08,1e-08,1e-08
AA5xxx Card - 055E.docx,AA5xxx,055E,96.347,0.05,0.05,0.26,0.25,3.03,1e-08,1e-08,0.01,0.003,1e-08,1e-08,1e-08,102.0,232.0,21.1,27.3,1.0,steel mould (~0.4°C/sec),63.5,540/18000,1.0,18000.0,540.0,540.0,18000.0,1.0,86.5,68.3,350/7200,other,1,7200,350.0,350.0,0,0,0,31.0,yes,,0,0,0,0,0,540°C > 5 hours,350°C 2 hours,3.653,1,100.0,1e-08,0.05,0.05,0.26,0.25,3.03,1e-08,1e-08,0.01,0.003,1e-08,1e-08,1e-08
AA5xxx Card - 055F.docx,AA5xxx,055F,96.177,0.05,0.05,0.49,0.25,2.97,1e-08,1e-08,0.01,0.003,1e-08,1e-08,1e-08,101.0,234.0,18.5,25.0,1.0,steel mould (~0.4°C/sec),63.5,540/18000,1.0,18000.0,540.0,540.0,18000.0,1.0,86.5,68.3,350/7200,other,1,7200,350.0,350.0,0,0,0,31.5,yes,,0,0,0,0,0,540°C > 5 hours,350°C 2 hours,3.823,1,100.0,1e-08,0.05,0.05,0.49,0.25,2.97,1e-08,1e-08,0.01,0.003,1e-08,1e-08,1e-08
AA5xxx Card - 055G.docx,AA5xxx,055G,95.807,0.05,0.05,0.74,0.25,3.09,1e-08,1e-08,0.01,0.003,1e-08,1e-08,1e-08,104.0,239.0,18.6,24.0,1.0,steel mould (~0.4°C/sec),63.5,540/18000,1.0,18000.0,540.0,540.0,18000.0,1.0,86.5,68.3,350/7200,other,1,7200,350.0,350.0,0,0,0,33.1,yes,,0,0,0,0,0,540°C > 5 hours,350°C 2 hours,4.193,1,100.0,1e-08,0.05,0.05,0.74,0.25,3.09,1e-08,1e-08,0.01,0.003,1e-08,1e-08,1e-08
AA5xxx Card - 055H.docx,AA5xxx,055H,95.557,0.05,0.05,1.02,0.25,3.06,1e-08,1e-08,0.01,0.003,1e-08,1e-08,1e-08,105.0,245.0,17.0,20.7,0.8,steel mould (~0.4°C/sec),63.5,540/18000,1.0,18000.0,540.0,540.0,18000.0,1.0,86.5,68.3,350/7200,other,1,7200,350.0,350.0,0,0,0,36.5,yes,,0,0,0,0,0,540°C > 5 hours,350°C 2 hours,4.443,1,100.0,1e-08,0.05,0.05,1.02,0.25,3.06,1e-08,1e-08,0.01,0.003,1e-08,1e-08,1e-08
AA5xxx Card - 055I.docx,AA5xxx,055I,96.567,0.26,0.05,0.01,0.25,2.85,1e-08,1e-08,0.01,0.003,1e-08,1e-08,1e-08,104.0,222.0,22.5,26.3,1.3,steel mould (~0.4°C/sec),63.5,540/18000,1.0,18000.0,540.0,540.0,18000.0,1.0,86.5,68.3,350/7200,other,1,7200,350.0,350.0,0,0,0,20.5,yes,,0,0,0,0,0,540°C > 5 hours,350°C 2 hours,3.433,1,100.0,1e-08,0.26,0.05,0.01,0.25,2.85,1e-08,1e-08,0.01,0.003,1e-08,1e-08,1e-08
AA5xxx Card - 055J.docx,AA5xxx,055J,96.207,0.5,0.05,0.01,0.25,2.97,1e-08,1e-08,0.01,0.003,1e-08,1e-08,1e-08,100.0,207.0,20.8,23.7,1.3,steel mould (~0.4°C/sec),63.5,540/18000,1.0,18000.0,540.0,540.0,18000.0,1.0,86.5,68.3,350/7200,other,1,7200,350.0,350.0,0,0,0,19.0,yes,,0,0,0,0,0,540°C > 5 hours,350°C 2 hours,3.793,1,100.0,1e-08,0.5,0.05,0.01,0.25,2.97,1e-08,1e-08,0.01,0.003,1e-08,1e-08,1e-08
AA5xxx Card - 055K.docx,AA5xxx,055K,95.977,0.74,0.05,0.01,0.25,2.96,1e-08,1e-08,0.01,0.003,1e-08,1e-08,1e-08,95.0,196.0,20.3,23.7,1.4,steel mould (~0.4°C/sec),63.5,540/18000,1.0,18000.0,540.0,540.0,18000.0,1.0,86.5,68.3,350/7200,other,1,7200,350.0,350.0,0,0,0,18.3,yes,,0,0,0,0,0,540°C > 5 hours,350°C 2 hours,4.023,1,100,1e-08,0.74,0.05,0.01,0.25,2.96,1e-08,1e-08,0.01,0.003,1e-08,1e-08,1e-08
AA5xxx Card - 055L.docx,AA5xxx,055L,95.667,1.01,0.05,0.01,0.24,3.01,1e-08,1e-08,0.01,0.003,1e-08,1e-08,1e-08,81.0,171.0,20.3,25.0,1.2,steel mould (~0.4°C/sec),63.5,540/18000,1.0,18000.0,540.0,540.0,18000.0,1.0,86.5,68.3,350/7200,other,1,7200,350.0,350.0,0,0,0,16.7,yes,,0,0,0,0,0,540°C > 5 hours,350°C 2 hours,4.333,1,100.0,1e-08,1.01,0.05,0.01,0.24,3.01,1e-08,1e-08,0.01,0.003,1e-08,1e-08,1e-08
AA5xxx Card - 055M.docx,AA5xxx,055M,96.297,0.05,0.05,0.01,0.25,3.08,1e-08,1e-08,0.26,0.003,1e-08,1e-08,1e-08,102.0,225.0,23.9,29.0,1.0,steel mould (~0.4°C/sec),63.5,540/18000,1.0,18000.0,540.0,540.0,18000.0,1.0,86.5,68.3,350/7200,other,1,7200,350.0,350.0,0,0,0,49.1,yes,,0,0,0,0,0,540°C > 5 hours,350°C 2 hours,3.703,1,100.0,1e-08,0.05,0.05,0.01,0.25,3.08,1e-08,1e-08,0.26,0.003,1e-08,1e-08,1e-08
AA5xxx Card - 055N.docx,AA5xxx,055N,96.077,0.05,0.05,0.01,0.24,3.03,1e-08,1e-08,0.54,0.003,1e-08,1e-08,1e-08,101.0,226.0,22.8,26.7,1.3,steel mould (~0.4°C/sec),63.5,540/18000,1.0,18000.0,540.0,540.0,18000.0,1.0,86.5,68.3,350/7200,other,1,7200,350.0,350.0,0,0,0,48.8,yes,,0,0,0,0,0,540°C > 5 hours,350°C 2 hours,3.923,1,100.0,1e-08,0.05,0.05,0.01,0.24,3.03,1e-08,1e-08,0.54,0.003,1e-08,1e-08,1e-08
AA5xxx Card - 055O.docx,AA5xxx,055O,95.837,0.05,0.05,0.01,0.25,3.02,1e-08,1e-08,0.78,0.003,1e-08,1e-08,1e-08,100.0,228.0,21.5,25.7,1.1,steel mould (~0.4°C/sec),63.5,540/18000,1.0,18000.0,540.0,540.0,18000.0,1.0,86.5,68.3,350/7200,other,1,7200,350.0,350.0,0,0,0,48.2,yes,,0,0,0,0,0,540°C > 5 hours,350°C 2 hours,4.163,1,100.0,1e-08,0.05,0.05,0.01,0.25,3.02,1e-08,1e-08,0.78,0.003,1e-08,1e-08,1e-08
AA5xxx Card - 055P.docx,AA5xxx,055P,95.617,0.05,0.05,0.01,0.24,3.01,1e-08,1e-08,1.02,0.003,1e-08,1e-08,1e-08,99.0,230.0,20.7,24.3,1.1,steel mould (~0.4°C/sec),63.5,540/18000,1.0,18000.0,540.0,540.0,18000.0,1.0,86.5,68.3,350/7200,other,1,7200,350.0,350.0,0,0,0,51.6,yes,,0,0,0,0,0,540°C > 5 hours,350°C 2 hours,4.383,1,100.0,1e-08,0.05,0.05,0.01,0.24,3.01,1e-08,1e-08,1.02,0.003,1e-08,1e-08,1e-08